Subject_ID,Session,Block_Type,Trial_Num,Stimulus,Angle,Mirror_Condition,SOA,Response_Key,ACC,RT,Flag,Early_Key,Repeated_Trial,Practice_Round,Timestamp,Condition,StimType
W,1,N,1,7,240,Backward,,f,1,1676.0,0,0,0,,2026-05-10T12:30:46.464Z,7_N,Digit
W,1,N,2,2,120,Backward,,f,1,1979.0,0,0,0,,2026-05-10T12:30:50.176Z,2_N,Digit
W,1,N,8,7,60,Backward,,f,1,1615.0,0,0,0,,2026-05-10T12:31:08.752Z,7_N,Digit
W,1,N,9,5,120,Backward,,f,1,1655.0,0,0,0,,2026-05-10T12:31:12.144Z,5_N,Digit
W,1,N,10,2,0,Backward,,f,1,897.0,0,0,0,,2026-05-10T12:31:14.772Z,2_N,Digit
W,1,N,12,5,300,Normal,,j,1,646.0,0,0,0,,2026-05-10T12:31:19.704Z,5_N,Digit
W,1,N,20,7,300,Backward,,f,1,1388.0,0,0,0,,2026-05-10T12:31:45.211Z,7_N,Digit
W,1,N,21,7,300,Normal,,j,1,673.0,0,0,0,,2026-05-10T12:31:47.615Z,7_N,Digit
W,1,N,22,2,0,Normal,,j,1,573.0,0,0,0,,2026-05-10T12:31:49.908Z,2_N,Digit
W,1,N,24,2,60,Normal,,j,1,1605.0,0,0,0,,2026-05-10T12:31:56.399Z,2_N,Digit
W,1,N,27,7,180,Normal,,j,1,1518.0,0,0,0,,2026-05-10T12:32:05.171Z,7_N,Digit
W,1,N,30,7,60,Normal,,j,1,687.0,0,0,0,,2026-05-10T12:32:12.250Z,7_N,Digit
W,1,N,31,7,0,Backward,,f,1,668.0,0,0,0,,2026-05-10T12:32:14.639Z,7_N,Digit
W,1,N,32,5,0,Normal,,j,1,542.0,0,0,0,,2026-05-10T12:32:16.903Z,5_N,Digit
W,1,N,33,7,180,Backward,,f,1,929.0,0,0,0,,2026-05-10T12:32:19.557Z,7_N,Digit
W,1,N,34,2,120,Normal,,j,1,771.0,0,0,0,,2026-05-10T12:32:22.047Z,2_N,Digit
W,1,N,35,5,60,Normal,,j,1,642.0,0,0,0,,2026-05-10T12:32:24.426Z,5_N,Digit
W,1,N,38,2,180,Backward,,f,1,1992.0,0,0,0,,2026-05-10T12:32:34.739Z,2_N,Digit
W,1,N,40,2,180,Normal,,j,1,2063.0,0,0,0,,2026-05-10T12:32:41.007Z,2_N,Digit
W,1,N,41,2,300,Normal,,j,1,970.0,0,0,0,,2026-05-10T12:32:43.707Z,2_N,Digit
W,1,N,43,5,60,Backward,,f,1,1030.0,0,0,0,,2026-05-10T12:32:49.345Z,5_N,Digit
W,1,N,44,2,240,Backward,,f,1,1943.0,0,0,0,,2026-05-10T12:32:53.032Z,2_N,Digit
W,1,N,45,2,300,Backward,,f,1,651.0,0,0,0,,2026-05-10T12:32:55.398Z,2_N,Digit
W,1,N,47,5,240,Backward,,f,1,1888.0,0,0,0,,2026-05-10T12:33:01.478Z,5_N,Digit
W,1,N,48,2,60,Backward,,f,1,952.0,0,0,0,,2026-05-10T12:33:04.145Z,2_N,Digit
W,1,N,50,5,0,Backward,,f,1,660.0,0,0,0,,2026-05-10T12:33:09.131Z,5_N,Digit
W,1,N,51,5,180,Normal,,j,1,1312.0,0,0,0,,2026-05-10T12:33:12.166Z,5_N,Digit
W,1,N,52,5,240,Normal,,j,1,879.0,0,0,0,,2026-05-10T12:33:14.783Z,5_N,Digit
W,1,N,53,5,120,Normal,,f,0,812.0,0,0,0,,2026-05-10T12:33:17.321Z,5_N,Digit
W,1,N,57,5,300,Backward,,f,1,870.0,0,0,0,,2026-05-10T12:33:28.046Z,5_N,Digit
W,1,N,60,5,180,Backward,,f,1,721.0,0,0,0,,2026-05-10T12:33:35.589Z,5_N,Digit
W,1,N,63,7,120,Backward,,f,1,1005.0,0,0,0,,2026-05-10T12:33:44.155Z,7_N,Digit
W,1,N,65,7,240,Normal,,j,1,768.0,0,0,0,,2026-05-10T12:33:49.593Z,7_N,Digit
W,1,N,66,7,120,Normal,,j,1,718.0,0,0,0,,2026-05-10T12:33:52.026Z,7_N,Digit
W,1,N,67,7,0,Normal,,j,1,597.0,0,0,0,,2026-05-10T12:33:54.345Z,7_N,Digit
W,1,N,69,2,240,Normal,,j,1,841.0,0,0,0,,2026-05-10T12:33:59.294Z,2_N,Digit
W,1,I,1,5,60,Backward,,f,1,845.0,0,0,0,,2026-05-10T12:34:42.791Z,5_I,Digit
W,1,I,2,2,0,Backward,,f,1,861.0,0,0,0,,2026-05-10T12:34:47.805Z,2_I,Digit
W,1,I,3,5,240,Normal,,j,1,856.0,0,0,0,,2026-05-10T12:34:52.810Z,5_I,Digit
W,1,I,5,5,240,Backward,,f,1,1328.0,0,0,0,,2026-05-10T12:35:04.034Z,5_I,Digit
W,1,I,7,7,120,Backward,,f,1,946.0,0,0,0,,2026-05-10T12:35:14.078Z,7_I,Digit
W,1,I,8,2,60,Normal,,j,1,806.0,0,0,0,,2026-05-10T12:35:19.038Z,2_I,Digit
W,1,I,9,5,180,Backward,,f,1,2142.0,0,0,0,,2026-05-10T12:35:25.335Z,5_I,Digit
W,1,I,10,5,180,Normal,,j,1,2230.0,0,0,0,,2026-05-10T12:35:31.715Z,5_I,Digit
W,1,I,11,5,0,Normal,,j,1,1068.0,0,0,0,,2026-05-10T12:35:36.939Z,5_I,Digit
W,1,I,14,7,120,Normal,,j,1,840.0,0,0,0,,2026-05-10T12:35:52.502Z,7_I,Digit
W,1,I,15,7,180,Normal,,j,1,1393.0,0,0,0,,2026-05-10T12:35:58.055Z,7_I,Digit
W,1,I,16,5,0,Backward,,f,1,1044.0,0,0,0,,2026-05-10T12:36:03.238Z,5_I,Digit
W,1,I,21,7,180,Backward,,f,1,974.0,0,0,0,,2026-05-10T12:36:30.416Z,7_I,Digit
W,1,I,22,2,120,Backward,,f,1,877.0,0,0,0,,2026-05-10T12:36:35.422Z,2_I,Digit
W,1,I,23,5,300,Backward,,f,1,755.0,0,0,0,,2026-05-10T12:36:40.302Z,5_I,Digit
W,1,I,26,7,0,Backward,,f,1,629.0,0,0,0,,2026-05-10T12:36:54.780Z,7_I,Digit
W,1,I,29,2,240,Normal,,j,1,1194.0,0,0,0,,2026-05-10T12:37:10.216Z,2_I,Digit
W,1,I,30,2,240,Backward,,f,1,878.0,0,0,0,,2026-05-10T12:37:15.241Z,2_I,Digit
W,1,I,31,7,60,Normal,,j,1,688.0,0,0,0,,2026-05-10T12:37:20.069Z,7_I,Digit
W,1,I,32,2,120,Normal,,j,1,808.0,0,0,0,,2026-05-10T12:37:25.052Z,2_I,Digit
W,1,I,33,5,300,Normal,,j,1,547.0,0,0,0,,2026-05-10T12:37:29.757Z,5_I,Digit
W,1,I,35,2,180,Normal,,j,1,1197.0,0,0,0,,2026-05-10T12:37:41.818Z,2_I,Digit
W,1,I,36,7,300,Normal,,j,1,813.0,0,0,0,,2026-05-10T12:37:46.769Z,7_I,Digit
W,1,I,38,2,180,Backward,,f,1,1293.0,0,0,0,,2026-05-10T12:37:57.893Z,2_I,Digit
W,1,I,40,5,60,Normal,,j,1,761.0,0,0,0,,2026-05-10T12:38:08.407Z,5_I,Digit
W,1,I,43,7,300,Backward,,f,1,909.0,0,0,0,,2026-05-10T12:38:23.361Z,7_I,Digit
W,1,I,45,5,120,Normal,,j,1,655.0,0,0,0,,2026-05-10T12:38:34.734Z,5_I,Digit
W,1,I,49,2,60,Backward,,f,1,765.0,0,0,0,,2026-05-10T12:38:55.346Z,2_I,Digit
W,1,I,61,7,240,Backward,,f,1,1163.0,0,0,0,,2026-05-10T12:40:00.870Z,7_I,Digit
W,1,I,62,7,0,Normal,,j,1,778.0,0,0,0,,2026-05-10T12:40:05.782Z,7_I,Digit
W,1,I,64,7,240,Normal,,j,1,890.0,0,0,0,,2026-05-10T12:40:15.739Z,7_I,Digit
W,1,I,65,2,300,Normal,,j,1,731.0,0,0,0,,2026-05-10T12:40:20.618Z,2_I,Digit
W,1,I,66,5,120,Backward,,f,1,985.0,0,0,0,,2026-05-10T12:40:25.737Z,5_I,Digit
W,1,I,67,2,0,Normal,,j,1,694.0,0,0,0,,2026-05-10T12:40:30.562Z,2_I,Digit
W,1,I,68,2,300,Backward,,f,1,1610.0,0,0,0,,2026-05-10T12:40:36.312Z,2_I,Digit
W,1,I,69,7,60,Backward,,f,1,744.0,0,0,0,,2026-05-10T12:40:41.203Z,7_I,Digit
W,1,O,1,7,60,Backward,,f,1,1373.0,0,0,0,,2026-05-10T12:58:31.078Z,7_O,Digit
W,1,O,2,7,60,Normal,,j,1,708.0,0,0,0,,2026-05-10T12:58:33.926Z,7_O,Digit
W,1,O,4,7,300,Normal,,j,1,586.0,0,0,0,,2026-05-10T12:58:39.409Z,7_O,Digit
W,1,O,5,7,240,Backward,,f,1,977.0,0,0,0,,2026-05-10T12:58:42.522Z,7_O,Digit
W,1,O,8,7,180,Normal,,j,1,2391.0,0,0,0,,2026-05-10T12:58:53.318Z,7_O,Digit
W,1,O,13,7,120,Normal,,j,1,725.0,0,0,0,,2026-05-10T12:59:10.549Z,7_O,Digit
W,1,O,18,2,300,Backward,,f,1,1370.0,0,0,0,,2026-05-10T12:59:28.323Z,2_O,Digit
W,1,O,20,7,180,Backward,,f,1,2007.0,0,0,0,,2026-05-10T12:59:35.950Z,7_O,Digit
W,1,O,21,7,240,Normal,,j,1,760.0,0,0,0,,2026-05-10T12:59:38.850Z,7_O,Digit
W,1,O,22,5,0,Backward,,f,1,790.0,0,0,0,,2026-05-10T12:59:41.778Z,5_O,Digit
W,1,O,25,2,120,Normal,,j,1,855.0,0,0,0,,2026-05-10T12:59:50.743Z,2_O,Digit
W,1,O,26,2,240,Normal,,j,1,779.0,0,0,0,,2026-05-10T12:59:53.672Z,2_O,Digit
W,1,O,27,5,120,Normal,,j,1,1062.0,0,0,0,,2026-05-10T12:59:56.881Z,5_O,Digit
W,1,O,31,2,240,Backward,,f,1,1157.0,0,0,0,,2026-05-10T13:00:09.176Z,2_O,Digit
W,1,O,34,5,180,Normal,,j,1,884.0,0,0,0,,2026-05-10T13:00:18.998Z,5_O,Digit
W,1,O,36,2,60,Backward,,f,1,956.0,0,0,0,,2026-05-10T13:00:25.046Z,2_O,Digit
W,1,O,37,7,0,Normal,,j,1,637.0,0,0,0,,2026-05-10T13:00:27.810Z,7_O,Digit
W,1,O,38,5,240,Normal,,j,1,640.0,0,0,0,,2026-05-10T13:00:30.589Z,5_O,Digit
W,1,O,41,2,120,Backward,,f,1,977.0,0,0,0,,2026-05-10T13:00:40.633Z,2_O,Digit
W,1,O,44,5,60,Backward,,f,1,768.0,0,0,0,,2026-05-10T13:00:50.118Z,5_O,Digit
W,1,O,46,5,0,Normal,,j,1,652.0,0,0,0,,2026-05-10T13:00:56.029Z,5_O,Digit
W,1,O,47,2,300,Normal,,j,1,655.0,0,0,0,,2026-05-10T13:00:58.835Z,2_O,Digit
W,1,O,48,7,120,Backward,,f,1,968.0,0,0,0,,2026-05-10T13:01:01.948Z,7_O,Digit
W,1,O,50,5,300,Backward,,f,1,813.0,0,0,0,,2026-05-10T13:01:07.809Z,5_O,Digit
W,1,O,54,5,180,Backward,,f,1,1406.0,0,0,0,,2026-05-10T13:01:22.581Z,5_O,Digit
W,1,O,55,2,0,Backward,,f,1,760.0,0,0,0,,2026-05-10T13:01:25.474Z,2_O,Digit
W,1,O,57,7,300,Backward,,f,1,700.0,0,0,0,,2026-05-10T13:01:31.257Z,7_O,Digit
W,1,O,58,5,120,Backward,,f,1,943.0,0,0,0,,2026-05-10T13:01:34.337Z,5_O,Digit
W,1,O,59,5,60,Normal,,j,1,532.0,0,0,0,,2026-05-10T13:01:36.993Z,5_O,Digit
W,1,O,60,7,0,Backward,,f,1,665.0,0,0,0,,2026-05-10T13:01:39.792Z,7_O,Digit
W,1,O,61,2,0,Normal,,j,1,592.0,0,0,0,,2026-05-10T13:01:42.519Z,2_O,Digit
W,1,O,64,2,60,Normal,,j,1,821.0,0,0,0,,2026-05-10T13:01:51.333Z,2_O,Digit
W,1,O,65,5,240,Backward,,f,1,1084.0,0,0,0,,2026-05-10T13:01:54.546Z,5_O,Digit
W,1,O,68,2,180,Backward,,f,1,2613.0,0,0,0,,2026-05-10T13:02:05.292Z,2_O,Digit
W,1,O,69,5,300,Normal,,j,1,768.0,0,0,0,,2026-05-10T13:02:08.204Z,5_O,Digit
W,1,O,71,2,180,Normal,,j,1,2178.0,0,0,0,,2026-05-10T13:02:15.400Z,2_O,Digit
W,1,B,1,2,180,Backward,400.0,f,1,1837.0,0,0,0,,2026-05-13T13:47:34.306Z,2_B,Digit
W,1,B,8,5,120,Backward,100.0,f,1,1097.0,0,0,0,,2026-05-13T13:48:13.530Z,5_B,Digit
W,1,B,9,5,300,Backward,1000.0,f,1,658.0,0,0,0,,2026-05-13T13:48:19.337Z,5_B,Digit
W,1,B,11,7,60,Normal,400.0,j,1,723.0,0,0,0,,2026-05-13T13:48:29.757Z,7_B,Digit
W,1,B,12,2,180,Normal,400.0,j,1,2138.0,0,0,0,,2026-05-13T13:48:36.437Z,2_B,Digit
W,1,B,15,5,0,Normal,700.0,j,1,705.0,0,0,0,,2026-05-13T13:48:54.682Z,5_B,Digit
W,1,B,17,7,120,Backward,1000.0,f,1,913.0,0,0,0,,2026-05-13T13:49:06.474Z,7_B,Digit
W,1,B,18,7,240,Normal,700.0,j,1,853.0,0,0,0,,2026-05-13T13:49:12.182Z,7_B,Digit
W,1,B,19,5,180,Normal,400.0,j,1,1499.0,0,0,0,,2026-05-13T13:49:18.258Z,5_B,Digit
W,1,B,20,2,60,Backward,700.0,f,1,735.0,0,0,0,,2026-05-13T13:49:23.850Z,2_B,Digit
W,1,B,23,5,0,Normal,400.0,j,1,507.0,0,0,0,,2026-05-13T13:49:39.205Z,5_B,Digit
W,1,B,26,7,240,Backward,100.0,f,1,1097.0,0,0,0,,2026-05-13T13:49:55.185Z,7_B,Digit
W,1,B,27,5,180,Normal,1000.0,j,1,1673.0,0,0,0,,2026-05-13T13:50:02.006Z,5_B,Digit
W,1,B,29,2,180,Backward,1000.0,f,1,1528.0,0,0,0,,2026-05-13T13:50:14.340Z,2_B,Digit
W,1,B,46,5,0,Normal,1000.0,j,1,541.0,0,0,0,,2026-05-13T13:51:48.681Z,5_B,Digit
W,1,B,47,5,240,Backward,1000.0,f,1,714.0,0,0,0,,2026-05-13T13:51:54.545Z,5_B,Digit
W,1,B,48,7,120,Normal,700.0,j,1,737.0,0,0,0,,2026-05-13T13:52:00.133Z,7_B,Digit
W,1,B,49,7,240,Backward,400.0,f,1,1525.0,0,0,0,,2026-05-13T13:52:06.193Z,7_B,Digit
W,1,B,51,2,0,Normal,400.0,j,1,666.0,0,0,0,,2026-05-13T13:52:16.939Z,2_B,Digit
W,1,B,52,2,300,Normal,100.0,j,1,592.0,0,0,0,,2026-05-13T13:52:21.807Z,2_B,Digit
W,1,B,53,5,0,Backward,700.0,f,1,589.0,0,0,0,,2026-05-13T13:52:27.251Z,5_B,Digit
W,1,B,58,5,300,Normal,1000.0,j,1,646.0,0,0,0,,2026-05-13T13:52:55.993Z,5_B,Digit
W,1,B,62,5,120,Normal,1000.0,j,1,696.0,0,0,0,,2026-05-13T13:53:19.721Z,5_B,Digit
W,1,B,63,2,240,Normal,100.0,j,1,769.0,0,0,0,,2026-05-13T13:53:24.730Z,2_B,Digit
W,1,B,64,2,0,Normal,700.0,j,1,490.0,0,0,0,,2026-05-13T13:53:30.058Z,2_B,Digit
W,1,B,69,5,300,Backward,400.0,f,1,561.0,0,0,0,,2026-05-13T13:53:57.650Z,5_B,Digit
W,1,B,70,7,120,Backward,700.0,f,1,950.0,0,0,0,,2026-05-13T13:54:03.446Z,7_B,Digit
W,1,B,73,5,60,Backward,1000.0,f,1,547.0,0,0,0,,2026-05-13T13:54:20.609Z,5_B,Digit
W,1,B,75,7,180,Normal,1000.0,j,1,1497.0,0,0,0,,2026-05-13T13:54:32.637Z,7_B,Digit
W,1,B,76,7,180,Normal,100.0,j,1,672.0,0,0,0,,2026-05-13T13:54:37.553Z,7_B,Digit
W,1,B,78,2,120,Backward,1000.0,f,1,1038.0,0,0,0,,2026-05-13T13:54:49.353Z,2_B,Digit
W,1,B,79,7,240,Normal,400.0,j,1,678.0,0,0,0,,2026-05-13T13:54:54.577Z,7_B,Digit
W,1,B,81,7,120,Normal,1000.0,j,1,608.0,0,0,0,,2026-05-13T13:55:05.273Z,7_B,Digit
W,1,B,82,7,0,Normal,1000.0,j,1,615.0,0,0,0,,2026-05-13T13:55:11.038Z,7_B,Digit
W,1,B,86,7,0,Backward,1000.0,f,1,483.0,0,0,0,,2026-05-13T13:55:33.194Z,7_B,Digit
W,1,B,88,2,120,Backward,100.0,f,1,870.0,0,0,0,,2026-05-13T13:55:43.667Z,2_B,Digit
W,1,B,91,5,120,Normal,700.0,j,1,810.0,0,0,0,,2026-05-13T13:56:02.165Z,5_B,Digit
W,1,B,92,7,60,Normal,1000.0,j,1,450.0,0,0,0,,2026-05-13T13:56:07.749Z,7_B,Digit
W,1,B,96,5,240,Backward,400.0,f,1,1145.0,0,0,0,,2026-05-13T13:56:30.691Z,5_B,Digit
W,1,B,98,5,180,Backward,700.0,f,1,2262.0,0,0,0,,2026-05-13T13:56:43.969Z,5_B,Digit
W,1,B,99,5,300,Normal,400.0,j,1,527.0,0,0,0,,2026-05-13T13:56:49.042Z,5_B,Digit
W,1,B,100,7,300,Backward,700.0,f,1,508.0,0,0,0,,2026-05-13T13:56:54.392Z,7_B,Digit
W,1,B,102,2,0,Backward,700.0,f,1,638.0,0,0,0,,2026-05-13T13:57:07.459Z,2_B,Digit
W,1,B,104,5,300,Backward,100.0,f,1,643.0,0,0,0,,2026-05-13T13:57:17.650Z,5_B,Digit
W,1,B,105,2,120,Normal,1000.0,j,1,722.0,0,0,0,,2026-05-13T13:57:23.513Z,2_B,Digit
W,1,B,106,2,240,Backward,700.0,f,1,871.0,0,0,0,,2026-05-13T13:57:29.225Z,2_B,Digit
W,1,B,109,5,60,Normal,100.0,j,1,639.0,0,0,0,,2026-05-13T13:57:45.294Z,5_B,Digit
W,1,B,111,5,0,Backward,1000.0,f,1,556.0,0,0,0,,2026-05-13T13:57:56.309Z,5_B,Digit
W,1,B,117,5,300,Backward,700.0,f,1,607.0,0,0,0,,2026-05-13T13:58:29.521Z,5_B,Digit
W,1,B,119,2,120,Backward,700.0,f,1,634.0,0,0,0,,2026-05-13T13:58:40.949Z,2_B,Digit
W,1,B,122,5,180,Normal,700.0,j,1,1976.0,0,0,0,,2026-05-13T13:58:58.753Z,5_B,Digit
W,1,B,125,7,0,Normal,400.0,j,1,757.0,0,0,0,,2026-05-13T13:59:14.810Z,7_B,Digit
W,1,B,127,5,180,Backward,400.0,f,1,857.0,0,0,0,,2026-05-13T13:59:25.396Z,5_B,Digit
W,1,B,129,7,180,Backward,700.0,f,1,763.0,0,0,0,,2026-05-13T13:59:36.628Z,7_B,Digit
W,1,B,131,5,240,Normal,100.0,j,1,783.0,0,0,0,,2026-05-13T13:59:47.207Z,5_B,Digit
W,1,B,132,7,120,Backward,400.0,f,1,731.0,0,0,0,,2026-05-13T13:59:52.493Z,7_B,Digit
W,1,B,133,5,240,Normal,700.0,j,1,539.0,0,0,0,,2026-05-13T13:59:57.893Z,5_B,Digit
W,1,B,134,5,240,Backward,700.0,f,1,1123.0,0,0,0,,2026-05-13T14:00:03.865Z,5_B,Digit
W,1,B,135,7,240,Normal,1000.0,j,1,621.0,0,0,0,,2026-05-13T14:00:09.638Z,7_B,Digit
W,1,B,138,7,60,Backward,400.0,f,1,791.0,0,0,0,,2026-05-13T14:00:26.315Z,7_B,Digit
W,1,B,142,7,300,Backward,1000.0,f,1,563.0,0,0,0,,2026-05-13T14:00:49.511Z,7_B,Digit
W,1,B,143,5,300,Normal,700.0,j,1,542.0,0,0,0,,2026-05-13T14:00:54.911Z,5_B,Digit
W,1,B,144,7,60,Backward,700.0,f,1,792.0,0,0,0,,2026-05-13T14:01:00.546Z,7_B,Digit
W,1,B,146,5,300,Normal,100.0,j,1,558.0,0,0,0,,2026-05-13T14:01:10.280Z,5_B,Digit
W,1,B,147,5,0,Normal,100.0,j,1,559.0,0,0,0,,2026-05-13T14:01:15.091Z,5_B,Digit
W,1,B,148,7,300,Backward,400.0,f,1,515.0,0,0,0,,2026-05-13T14:01:20.149Z,7_B,Digit
W,1,B,150,7,60,Normal,100.0,j,1,669.0,0,0,0,,2026-05-13T14:01:30.901Z,7_B,Digit
W,1,B,151,5,60,Normal,700.0,j,1,405.0,0,0,0,,2026-05-13T14:01:36.169Z,5_B,Digit
W,1,B,152,2,120,Normal,100.0,j,1,680.0,0,0,0,,2026-05-13T14:01:41.107Z,2_B,Digit
W,1,B,153,2,240,Normal,1000.0,j,1,1330.0,0,0,0,,2026-05-13T14:01:47.581Z,2_B,Digit
W,1,B,154,2,120,Normal,400.0,j,1,873.0,0,0,0,,2026-05-13T14:01:53.009Z,2_B,Digit
W,1,B,157,2,60,Normal,400.0,j,1,603.0,0,0,0,,2026-05-13T14:02:09.310Z,2_B,Digit
W,1,B,158,7,300,Backward,100.0,f,1,639.0,0,0,0,,2026-05-13T14:02:14.195Z,7_B,Digit
W,1,B,159,7,300,Normal,1000.0,j,1,551.0,0,0,0,,2026-05-13T14:02:19.906Z,7_B,Digit
W,1,B,160,2,300,Normal,700.0,j,1,909.0,0,0,0,,2026-05-13T14:02:25.667Z,2_B,Digit
W,1,B,161,7,300,Normal,100.0,j,1,693.0,0,0,0,,2026-05-13T14:02:30.607Z,7_B,Digit
W,1,B,163,5,120,Backward,1000.0,f,1,486.0,0,0,0,,2026-05-13T14:02:41.706Z,5_B,Digit
W,1,B,166,2,180,Normal,700.0,j,1,1493.0,0,0,0,,2026-05-13T14:02:59.413Z,2_B,Digit
W,1,B,168,5,120,Backward,700.0,f,1,734.0,0,0,0,,2026-05-13T14:03:09.946Z,5_B,Digit
W,1,B,170,2,60,Backward,100.0,f,1,670.0,0,0,0,,2026-05-13T14:03:20.383Z,2_B,Digit
W,1,B,171,2,240,Normal,700.0,j,1,983.0,0,0,0,,2026-05-13T14:03:26.223Z,2_B,Digit
W,1,B,172,5,180,Backward,100.0,f,1,2201.0,0,0,0,,2026-05-13T14:03:32.681Z,5_B,Digit
W,1,B,173,7,120,Normal,400.0,j,1,1150.0,0,0,0,,2026-05-13T14:03:38.365Z,7_B,Digit
W,1,B,174,2,0,Backward,100.0,f,1,848.0,0,0,0,,2026-05-13T14:03:43.457Z,2_B,Digit
W,1,B,176,2,300,Backward,100.0,f,1,798.0,0,0,0,,2026-05-13T14:03:53.849Z,2_B,Digit
W,1,B,178,7,60,Backward,1000.0,f,1,740.0,0,0,0,,2026-05-13T14:04:04.945Z,7_B,Digit
W,1,B,179,2,240,Normal,400.0,j,1,862.0,0,0,0,,2026-05-13T14:04:10.357Z,2_B,Digit
W,1,B,180,2,0,Normal,1000.0,j,1,502.0,0,0,0,,2026-05-13T14:04:15.998Z,2_B,Digit
W,1,B,181,7,240,Backward,1000.0,f,1,623.0,0,0,0,,2026-05-13T14:04:21.777Z,7_B,Digit
W,1,B,182,5,60,Normal,1000.0,j,1,464.0,0,0,0,,2026-05-13T14:04:27.398Z,5_B,Digit
W,1,B,188,7,0,Backward,400.0,f,1,632.0,0,0,0,,2026-05-13T14:05:00.658Z,7_B,Digit
W,1,B,194,2,60,Normal,100.0,j,1,552.0,0,0,0,,2026-05-13T14:05:34.790Z,2_B,Digit
W,1,B,197,7,120,Normal,100.0,j,1,706.0,0,0,0,,2026-05-13T14:05:51.459Z,7_B,Digit
W,1,B,200,2,180,Backward,700.0,f,1,1021.0,0,0,0,,2026-05-13T14:06:08.930Z,2_B,Digit
W,1,B,203,5,180,Normal,100.0,j,1,1356.0,0,0,0,,2026-05-13T14:06:26.149Z,5_B,Digit
W,1,B,205,5,240,Backward,100.0,f,1,1037.0,0,0,0,,2026-05-13T14:06:37.433Z,5_B,Digit
W,1,B,208,2,300,Backward,1000.0,f,1,1235.0,0,0,0,,2026-05-13T14:06:56.827Z,2_B,Digit
W,1,B,209,7,300,Normal,700.0,j,1,620.0,0,0,0,,2026-05-13T14:07:02.290Z,7_B,Digit
W,1,B,210,2,300,Backward,400.0,f,1,596.0,0,0,0,,2026-05-13T14:07:07.434Z,2_B,Digit
W,1,B,212,7,0,Normal,700.0,j,1,567.0,0,0,0,,2026-05-13T14:07:18.025Z,7_B,Digit
W,1,B,213,7,120,Backward,100.0,f,1,619.0,0,0,0,,2026-05-13T14:07:22.897Z,7_B,Digit
W,1,B,214,2,300,Backward,700.0,f,1,553.0,0,0,0,,2026-05-13T14:07:28.297Z,2_B,Digit
W,1,B,215,5,60,Normal,400.0,j,1,512.0,0,0,0,,2026-05-13T14:07:33.345Z,5_B,Digit
W,1,B,219,2,0,Normal,100.0,j,1,705.0,0,0,0,,2026-05-13T14:07:54.053Z,2_B,Digit
W,1,B,220,2,180,Normal,100.0,j,1,1742.0,0,0,0,,2026-05-13T14:08:00.058Z,2_B,Digit
W,1,B,222,7,300,Normal,400.0,j,1,621.0,0,0,0,,2026-05-13T14:08:10.750Z,7_B,Digit
W,1,B,225,5,60,Backward,400.0,f,1,511.0,0,0,0,,2026-05-13T14:08:26.257Z,5_B,Digit
W,1,B,228,7,0,Normal,100.0,j,1,565.0,0,0,0,,2026-05-13T14:08:43.274Z,7_B,Digit
W,1,B,231,2,120,Backward,400.0,f,1,980.0,0,0,0,,2026-05-13T14:09:01.533Z,2_B,Digit
W,1,B,233,7,180,Backward,400.0,f,1,818.0,0,0,0,,2026-05-13T14:09:12.145Z,7_B,Digit
W,1,B,234,7,0,Backward,100.0,f,1,709.0,0,0,0,,2026-05-13T14:09:17.113Z,7_B,Digit
W,1,B,236,2,60,Backward,400.0,f,1,566.0,0,0,0,,2026-05-13T14:09:27.629Z,2_B,Digit
W,1,B,237,2,0,Backward,400.0,f,1,483.0,0,0,0,,2026-05-13T14:09:32.681Z,2_B,Digit
W,1,B,238,5,0,Backward,400.0,f,1,530.0,0,0,0,,2026-05-13T14:09:37.743Z,5_B,Digit
W,1,B,244,5,240,Normal,400.0,j,1,1083.0,0,0,0,,2026-05-13T14:10:13.735Z,5_B,Digit
W,1,B,245,2,60,Backward,1000.0,f,1,621.0,0,0,0,,2026-05-13T14:10:19.529Z,2_B,Digit
W,1,B,246,2,60,Normal,700.0,j,1,418.0,0,0,0,,2026-05-13T14:10:24.801Z,2_B,Digit
W,1,B,248,5,240,Normal,1000.0,j,1,649.0,0,0,0,,2026-05-13T14:10:35.701Z,5_B,Digit
W,1,B,249,2,180,Backward,100.0,f,1,1522.0,0,0,0,,2026-05-13T14:10:41.478Z,2_B,Digit
W,1,B,250,5,120,Normal,100.0,j,1,722.0,0,0,0,,2026-05-13T14:10:46.450Z,5_B,Digit
W,1,B,254,7,60,Backward,100.0,f,1,607.0,0,0,0,,2026-05-13T14:11:08.439Z,7_B,Digit
W,1,B,255,5,60,Backward,100.0,f,1,559.0,0,0,0,,2026-05-13T14:11:13.247Z,5_B,Digit
W,1,B,259,7,240,Normal,100.0,j,1,655.0,0,0,0,,2026-05-13T14:11:34.237Z,7_B,Digit
W,1,B,261,5,120,Backward,400.0,f,1,981.0,0,0,0,,2026-05-13T14:11:45.938Z,5_B,Digit
W,1,B,263,2,0,Backward,1000.0,f,1,436.0,0,0,0,,2026-05-13T14:11:57.825Z,2_B,Digit
W,1,B,264,5,60,Backward,700.0,f,1,640.0,0,0,0,,2026-05-13T14:12:03.293Z,5_B,Digit
W,1,B,265,7,240,Backward,700.0,f,1,855.0,0,0,0,,2026-05-13T14:12:09.001Z,7_B,Digit
W,1,B,266,2,240,Backward,100.0,f,1,990.0,0,0,0,,2026-05-13T14:12:14.237Z,2_B,Digit
W,1,B,267,2,240,Backward,1000.0,f,1,794.0,0,0,0,,2026-05-13T14:12:20.189Z,2_B,Digit
W,1,B,268,7,180,Backward,100.0,f,1,1001.0,0,0,0,,2026-05-13T14:12:25.442Z,7_B,Digit
W,1,B,269,2,300,Normal,1000.0,j,1,1090.0,0,0,0,,2026-05-13T14:12:31.670Z,2_B,Digit
W,1,B,270,7,180,Normal,400.0,j,1,1463.0,0,0,0,,2026-05-13T14:12:37.670Z,7_B,Digit
W,1,B,272,2,120,Normal,700.0,j,1,866.0,0,0,0,,2026-05-13T14:12:48.986Z,2_B,Digit
W,1,B,276,2,240,Backward,400.0,f,1,873.0,0,0,0,,2026-05-13T14:13:10.801Z,2_B,Digit
W,1,B,277,5,120,Normal,400.0,j,1,787.0,0,0,0,,2026-05-13T14:13:16.121Z,5_B,Digit
W,1,B,278,2,300,Normal,400.0,j,1,2253.0,0,0,0,,2026-05-13T14:13:22.918Z,2_B,Digit
W,1,B,279,5,0,Backward,100.0,f,1,598.0,0,0,0,,2026-05-13T14:13:27.758Z,5_B,Digit
W,1,B,280,7,60,Normal,700.0,j,1,631.0,0,0,0,,2026-05-13T14:13:33.234Z,7_B,Digit
W,1,B,286,7,180,Normal,700.0,j,1,820.0,0,0,0,,2026-05-13T14:14:09.366Z,7_B,Digit
W,1,B,287,2,60,Normal,1000.0,j,1,720.0,0,0,0,,2026-05-13T14:14:15.251Z,2_B,Digit
W,1,B,288,7,0,Backward,700.0,f,1,873.0,0,0,0,,2026-05-13T14:14:20.987Z,7_B,Digit
W,1,C,70,5,180,Normal,,j,1,226.0,0,0,0,,2026-05-12T10:48:44.996Z,5_C,Digit
W,1,C,3,5,180,Normal,,j,1,273.0,0,0,0,,2026-05-14T11:34:52.557Z,5_C,Digit
W,1,C,77,7,120,Normal,,j,1,353.0,0,0,0,,2026-05-12T10:49:14.205Z,7_C,Digit
W,1,C,35,5,60,Backward,,f,1,207.0,0,0,0,,2026-05-14T11:37:12.446Z,5_C,Digit
W,1,C,30,2,240,Normal,,j,1,320.0,0,0,0,,2026-05-12T10:45:48.991Z,2_C,Digit
W,1,C,14,2,240,Normal,,j,1,219.0,0,0,0,,2026-05-14T11:35:40.379Z,2_C,Digit
W,1,C,60,2,0,Backward,,f,1,250.0,0,0,0,,2026-05-14T11:39:01.052Z,2_C,Digit
W,1,C,25,5,120,Backward,,f,1,742.0,0,0,0,,2026-05-12T10:45:27.496Z,5_C,Digit
W,1,C,40,2,240,Backward,,f,1,201.0,0,0,0,,2026-05-14T11:37:33.960Z,2_C,Digit
W,1,C,79,7,0,Normal,,j,1,232.0,0,0,0,,2026-05-12T10:49:23.117Z,7_C,Digit
W,1,C,19,7,300,Backward,,f,1,253.0,0,0,0,,2026-05-14T11:36:01.855Z,7_C,Digit
W,1,C,19,2,240,Backward,,f,1,179.0,0,0,0,,2026-05-12T10:45:01.602Z,2_C,Digit
W,1,C,10,5,120,Normal,,j,1,312.0,0,0,0,,2026-05-12T10:44:22.683Z,5_C,Digit
W,1,C,32,7,0,Backward,,f,1,569.0,0,0,0,,2026-05-12T10:45:58.009Z,7_C,Digit
W,1,C,25,2,0,Normal,,j,1,133.0,1,0,0,,2026-05-14T11:36:28.123Z,2_C,Digit
W,1,C,68,5,180,Backward,,f,1,171.0,0,0,0,,2026-05-14T11:39:35.409Z,5_C,Digit
W,1,C,59,5,120,Normal,,j,1,189.0,0,0,0,,2026-05-14T11:38:56.669Z,5_C,Digit
W,1,C,43,7,120,Normal,,j,0,289.80000001192093,1,1,1,,2026-05-12T10:46:46.398Z,7_C,Digit
W,1,C,80,7,60,Normal,,j,1,200.0,0,0,0,,2026-05-12T10:49:27.455Z,7_C,Digit
W,1,C,37,7,180,Backward,,f,1,871.0,0,0,0,,2026-05-12T10:46:20.392Z,7_C,Digit
W,1,C,56,7,0,Normal,,j,1,170.0,0,0,0,,2026-05-14T11:38:43.864Z,7_C,Digit
W,1,C,45,5,120,Backward,,f,1,221.0,0,0,0,,2026-05-14T11:37:56.015Z,5_C,Digit
W,1,C,39,2,180,Backward,,f,0,370.7000000001863,1,1,1,,2026-05-14T11:37:29.596Z,2_C,Digit
W,1,C,42,2,60,Backward,,f,1,210.0,0,0,0,,2026-05-12T10:46:42.366Z,2_C,Digit
W,1,C,6,2,120,Backward,,f,1,182.0,0,0,0,,2026-05-14T11:35:05.798Z,2_C,Digit
W,1,C,11,2,120,Backward,,f,1,108.0,1,0,0,,2026-05-12T10:44:26.948Z,2_C,Digit
W,1,C,1,5,0,Normal,,j,1,1273.0,0,0,0,,2026-05-12T10:43:41.895Z,5_C,Digit
W,1,C,32,7,300,Normal,,j,1,333.0,0,0,0,,2026-05-14T11:36:59.489Z,7_C,Digit
W,1,C,65,7,300,Backward,,f,1,1055.0,0,0,0,,2026-05-12T10:48:23.226Z,7_C,Digit
W,1,C,45,5,240,Backward,,f,1,232.0,0,0,0,,2026-05-12T10:46:55.306Z,5_C,Digit
W,1,C,26,2,0,Backward,,f,0,843.5,1,1,1,,2026-05-12T10:45:30.074Z,2_C,Digit
W,1,C,24,7,60,Normal,,j,0,802.3999999761581,1,1,1,,2026-05-12T10:45:21.382Z,7_C,Digit
W,1,C,65,2,300,Normal,,j,1,270.0,0,0,0,,2026-05-14T11:39:22.528Z,2_C,Digit
L,1,N,2,5,240,Backward,,f,1,871.0,0,0,0,,2026-05-12T10:03:21.412Z,5_N,Digit
L,1,N,4,2,180,Normal,,j,1,990.0,0,0,0,,2026-05-12T10:03:27.297Z,2_N,Digit
L,1,N,5,2,60,Normal,,j,1,526.0,0,0,0,,2026-05-12T10:03:29.549Z,2_N,Digit
L,1,N,6,7,120,Normal,,j,1,571.0,0,0,0,,2026-05-12T10:03:31.845Z,7_N,Digit
L,1,N,7,5,120,Normal,,j,1,1329.0,0,0,0,,2026-05-12T10:03:34.905Z,5_N,Digit
L,1,N,11,7,60,Backward,,f,1,1004.0,0,0,0,,2026-05-12T10:03:44.713Z,7_N,Digit
L,1,N,12,5,60,Backward,,f,1,1083.0,0,0,0,,2026-05-12T10:03:47.526Z,5_N,Digit
L,1,N,16,2,300,Normal,,j,1,477.0,0,0,0,,2026-05-12T10:03:58.251Z,2_N,Digit
L,1,N,18,2,120,Backward,,f,1,543.0,0,0,0,,2026-05-12T10:04:02.885Z,2_N,Digit
L,1,N,19,7,60,Normal,,j,1,489.0,0,0,0,,2026-05-12T10:04:05.097Z,7_N,Digit
L,1,N,22,2,0,Normal,,j,1,434.0,0,0,0,,2026-05-12T10:04:12.057Z,2_N,Digit
L,1,N,24,7,240,Backward,,f,1,744.0,0,0,0,,2026-05-12T10:04:16.818Z,7_N,Digit
L,1,N,26,2,60,Backward,,f,1,912.0,0,0,0,,2026-05-12T10:04:21.705Z,2_N,Digit
L,1,N,29,2,120,Normal,,j,1,734.0,0,0,0,,2026-05-12T10:04:30.559Z,2_N,Digit
L,1,N,30,2,240,Backward,,f,1,1052.0,0,0,0,,2026-05-12T10:04:33.343Z,2_N,Digit
L,1,N,31,7,300,Normal,,j,1,532.0,0,0,0,,2026-05-12T10:04:35.590Z,7_N,Digit
L,1,N,32,7,0,Normal,,j,1,2017.0,0,0,0,,2026-05-12T10:04:39.323Z,7_N,Digit
L,1,N,33,5,300,Normal,,j,1,1024.0,0,0,0,,2026-05-12T10:04:42.062Z,5_N,Digit
L,1,N,37,2,0,Backward,,f,1,650.0,0,0,0,,2026-05-12T10:04:51.974Z,2_N,Digit
L,1,N,41,5,180,Backward,,f,1,1586.0,0,0,0,,2026-05-12T10:05:04.076Z,5_N,Digit
L,1,N,43,7,240,Normal,,j,1,681.0,0,0,0,,2026-05-12T10:05:09.887Z,7_N,Digit
L,1,N,47,5,120,Backward,,f,1,900.0,0,0,0,,2026-05-12T10:05:20.990Z,5_N,Digit
L,1,N,50,5,0,Normal,,j,1,555.0,0,0,0,,2026-05-12T10:05:29.529Z,5_N,Digit
L,1,N,54,2,240,Normal,,j,1,664.0,0,0,0,,2026-05-12T10:05:40.139Z,2_N,Digit
L,1,N,55,7,120,Backward,,f,1,1068.0,0,0,0,,2026-05-12T10:05:42.943Z,7_N,Digit
L,1,N,56,2,300,Backward,,f,1,1090.0,0,0,0,,2026-05-12T10:05:45.764Z,2_N,Digit
L,1,N,57,5,60,Normal,,j,1,562.0,0,0,0,,2026-05-12T10:05:48.041Z,5_N,Digit
L,1,N,60,5,0,Backward,,f,1,675.0,0,0,0,,2026-05-12T10:05:55.949Z,5_N,Digit
L,1,N,61,5,240,Normal,,j,1,758.0,0,0,0,,2026-05-12T10:05:58.431Z,5_N,Digit
L,1,N,63,2,180,Backward,,f,1,1111.0,0,0,0,,2026-05-12T10:06:03.702Z,2_N,Digit
L,1,N,64,7,0,Backward,,f,1,739.0,0,0,0,,2026-05-12T10:06:06.163Z,7_N,Digit
L,1,N,65,5,180,Normal,,j,1,853.0,0,0,0,,2026-05-12T10:06:08.744Z,5_N,Digit
L,1,N,66,7,300,Backward,,f,1,703.0,0,0,0,,2026-05-12T10:06:11.176Z,7_N,Digit
L,1,N,68,5,300,Backward,,f,1,914.0,0,0,0,,2026-05-12T10:06:16.372Z,5_N,Digit
L,1,N,69,7,180,Normal,,j,1,1134.0,0,0,0,,2026-05-12T10:06:19.240Z,7_N,Digit
L,1,N,70,7,180,Backward,,f,1,1171.0,0,0,0,,2026-05-12T10:06:22.129Z,7_N,Digit
L,1,I,1,5,0,Backward,,f,1,687.0,0,0,0,,2026-05-12T10:06:38.602Z,5_I,Digit
L,1,I,2,5,180,Normal,,j,0,571.8999999761581,1,1,1,,2026-05-12T10:06:40.913Z,5_I,Digit
L,1,I,4,7,240,Normal,,j,1,504.0,0,0,0,,2026-05-12T10:06:52.102Z,7_I,Digit
L,1,I,7,2,120,Normal,,j,1,672.0,0,0,0,,2026-05-12T10:07:06.455Z,2_I,Digit
L,1,I,9,7,300,Backward,,f,1,531.0,0,0,0,,2026-05-12T10:07:14.746Z,7_I,Digit
L,1,I,15,5,300,Normal,,j,1,608.0,0,0,0,,2026-05-12T10:07:43.556Z,5_I,Digit
L,1,I,17,5,180,Backward,,f,1,1348.0,0,0,0,,2026-05-12T10:07:54.413Z,5_I,Digit
L,1,I,19,5,300,Backward,,f,1,1035.0,0,0,0,,2026-05-12T10:08:05.066Z,5_I,Digit
L,1,I,26,2,180,Normal,,j,1,999.0,0,0,0,,2026-05-12T10:08:39.796Z,2_I,Digit
L,1,I,34,2,180,Backward,,f,1,1930.0,0,0,0,,2026-05-12T10:09:14.179Z,2_I,Digit
L,1,I,35,5,0,Normal,,j,1,598.0,0,0,0,,2026-05-12T10:09:18.915Z,5_I,Digit
L,1,I,36,5,240,Normal,,j,1,1285.0,0,0,0,,2026-05-12T10:09:24.335Z,5_I,Digit
L,1,I,37,5,120,Backward,,f,1,1081.0,0,0,0,,2026-05-12T10:09:29.543Z,5_I,Digit
L,1,I,43,2,0,Backward,,f,1,549.0,0,0,0,,2026-05-12T10:09:59.231Z,2_I,Digit
L,1,I,44,7,60,Backward,,f,1,770.0,0,0,0,,2026-05-12T10:10:04.152Z,7_I,Digit
L,1,I,47,7,180,Normal,,f,0,543.0,0,0,0,,2026-05-12T10:10:18.958Z,7_I,Digit
L,1,I,48,2,300,Backward,,f,1,916.0,0,0,0,,2026-05-12T10:10:24.031Z,2_I,Digit
L,1,I,50,5,120,Normal,,j,1,802.0,0,0,0,,2026-05-12T10:10:33.785Z,5_I,Digit
L,1,I,51,7,180,Backward,,f,1,1012.0,0,0,0,,2026-05-12T10:10:38.940Z,7_I,Digit
L,1,I,52,5,60,Normal,,j,1,560.0,0,0,0,,2026-05-12T10:10:43.655Z,5_I,Digit
L,1,I,53,7,240,Backward,,f,1,955.0,0,0,0,,2026-05-12T10:10:48.749Z,7_I,Digit
L,1,I,54,2,0,Normal,,j,1,517.0,0,0,0,,2026-05-12T10:10:53.416Z,2_I,Digit
L,1,I,55,7,60,Normal,,j,1,460.0,0,0,0,,2026-05-12T10:10:58.041Z,7_I,Digit
L,1,I,56,2,60,Backward,,f,1,865.0,0,0,0,,2026-05-12T10:11:03.063Z,2_I,Digit
L,1,I,58,2,240,Normal,,j,1,700.0,0,0,0,,2026-05-12T10:11:13.164Z,2_I,Digit
L,1,I,59,5,60,Backward,,f,1,984.0,0,0,0,,2026-05-12T10:11:18.279Z,5_I,Digit
L,1,I,60,2,60,Normal,,j,1,1435.0,0,0,0,,2026-05-12T10:11:23.848Z,2_I,Digit
L,1,I,61,2,120,Backward,,f,1,596.0,0,0,0,,2026-05-12T10:11:28.586Z,2_I,Digit
L,1,I,62,7,120,Backward,,f,1,635.0,0,0,0,,2026-05-12T10:11:33.349Z,7_I,Digit
L,1,I,66,7,0,Normal,,j,1,346.0,0,0,0,,2026-05-12T10:11:52.892Z,7_I,Digit
L,1,I,67,2,300,Normal,,j,1,420.0,0,0,0,,2026-05-12T10:11:57.448Z,2_I,Digit
L,1,I,68,5,240,Backward,,f,1,868.0,0,0,0,,2026-05-12T10:12:02.467Z,5_I,Digit
L,1,I,70,7,300,Normal,,j,1,468.0,0,0,0,,2026-05-12T10:12:11.763Z,7_I,Digit
L,1,I,72,7,120,Normal,,j,1,729.0,0,0,0,,2026-05-12T10:12:21.725Z,7_I,Digit
L,1,I,73,5,180,Normal,,j,1,1177.0,0,0,0,,2026-05-12T10:12:27.059Z,5_I,Digit
L,1,I,75,7,0,Backward,,f,1,508.0,0,0,0,,2026-05-12T10:12:36.956Z,7_I,Digit
L,1,I,76,2,240,Backward,,f,1,986.0,0,0,0,,2026-05-12T10:12:42.085Z,2_I,Digit
L,1,O,1,7,180,Normal,,j,1,1309.0,0,0,0,,2026-05-12T10:15:15.379Z,7_O,Digit
L,1,O,2,2,0,Backward,,f,1,784.0,0,0,0,,2026-05-12T10:15:18.302Z,2_O,Digit
L,1,O,3,7,180,Backward,,f,1,1654.0,0,0,0,,2026-05-12T10:15:22.087Z,7_O,Digit
L,1,O,4,7,240,Normal,,j,1,645.0,0,0,0,,2026-05-12T10:15:24.862Z,7_O,Digit
L,1,O,6,5,60,Backward,,f,1,1096.0,0,0,0,,2026-05-12T10:15:30.932Z,5_O,Digit
L,1,O,8,2,300,Normal,,j,1,636.0,0,0,0,,2026-05-12T10:15:37.621Z,2_O,Digit
L,1,O,10,7,120,Backward,,f,1,892.0,0,0,0,,2026-05-12T10:15:43.757Z,7_O,Digit
L,1,O,11,2,120,Backward,,f,1,2095.0,0,0,0,,2026-05-12T10:15:47.995Z,2_O,Digit
L,1,O,18,7,60,Normal,,j,1,1052.0,0,0,0,,2026-05-12T10:16:09.604Z,7_O,Digit
L,1,O,19,2,120,Normal,,j,1,602.0,0,0,0,,2026-05-12T10:16:12.339Z,2_O,Digit
L,1,O,20,5,180,Backward,,f,1,1699.0,0,0,0,,2026-05-12T10:16:16.168Z,5_O,Digit
L,1,O,21,5,180,Normal,,j,1,1217.0,0,0,0,,2026-05-12T10:16:19.517Z,5_O,Digit
L,1,O,23,5,300,Normal,,j,1,653.0,0,0,0,,2026-05-12T10:16:25.570Z,5_O,Digit
L,1,O,26,5,300,Backward,,f,1,1132.0,0,0,0,,2026-05-12T10:16:35.132Z,5_O,Digit
L,1,O,29,7,120,Normal,,j,1,780.0,0,0,0,,2026-05-12T10:16:46.347Z,7_O,Digit
L,1,O,33,2,0,Normal,,j,1,529.0,0,0,0,,2026-05-12T10:16:58.228Z,2_O,Digit
L,1,O,34,7,240,Backward,,f,1,807.0,0,0,0,,2026-05-12T10:17:01.157Z,7_O,Digit
L,1,O,35,5,0,Normal,,j,1,543.0,0,0,0,,2026-05-12T10:17:03.827Z,5_O,Digit
L,1,O,38,7,60,Backward,,f,1,726.0,0,0,0,,2026-05-12T10:17:13.313Z,7_O,Digit
L,1,O,39,2,240,Backward,,f,1,819.0,0,0,0,,2026-05-12T10:17:16.285Z,2_O,Digit
L,1,O,41,2,300,Backward,,f,1,921.0,0,0,0,,2026-05-12T10:17:22.271Z,2_O,Digit
L,1,O,43,7,0,Backward,,f,1,549.0,0,0,0,,2026-05-12T10:17:27.732Z,7_O,Digit
L,1,O,44,7,0,Normal,,j,1,561.0,0,0,0,,2026-05-12T10:17:30.446Z,7_O,Digit
L,1,O,49,5,120,Normal,,j,1,799.0,0,0,0,,2026-05-12T10:17:45.983Z,5_O,Digit
L,1,O,51,7,300,Backward,,f,1,819.0,0,0,0,,2026-05-12T10:17:52.420Z,7_O,Digit
L,1,O,53,5,60,Normal,,j,1,660.0,0,0,0,,2026-05-12T10:17:58.444Z,5_O,Digit
L,1,O,55,2,60,Backward,,f,1,825.0,0,0,0,,2026-05-12T10:18:04.510Z,2_O,Digit
L,1,O,58,2,180,Normal,,,0,,1,0,0,,2026-05-12T10:18:18.156Z,2_O,Digit
L,1,O,59,5,240,Backward,,f,1,1984.0,0,0,0,,2026-05-12T10:18:22.257Z,5_O,Digit
L,1,O,60,2,240,Normal,,j,1,798.0,0,0,0,,2026-05-12T10:18:25.196Z,2_O,Digit
L,1,O,61,5,0,Backward,,f,1,942.0,0,0,0,,2026-05-12T10:18:28.290Z,5_O,Digit
L,1,O,62,2,60,Normal,,j,1,1899.0,0,0,0,,2026-05-12T10:18:32.314Z,2_O,Digit
L,1,O,64,7,300,Normal,,j,1,569.0,0,0,0,,2026-05-12T10:18:38.635Z,7_O,Digit
L,1,O,65,5,120,Backward,,f,1,938.0,0,0,0,,2026-05-12T10:18:41.704Z,5_O,Digit
L,1,O,66,2,180,Backward,,f,1,1176.0,0,0,0,,2026-05-12T10:18:45.010Z,2_O,Digit
L,1,O,67,5,240,Normal,,j,1,1316.0,0,0,0,,2026-05-12T10:18:48.463Z,5_O,Digit
L,1,B,3,2,120,Normal,100.0,j,1,812.0,0,0,0,,2026-05-12T10:24:05.031Z,2_B,Digit
L,1,B,5,7,120,Backward,1000.0,f,1,786.0,0,0,0,,2026-05-12T10:24:15.809Z,7_B,Digit
L,1,B,7,7,60,Normal,1000.0,j,1,442.0,0,0,0,,2026-05-12T10:24:26.413Z,7_B,Digit
L,1,B,8,2,0,Backward,400.0,f,1,494.0,0,0,0,,2026-05-12T10:24:31.456Z,2_B,Digit
L,1,B,9,2,60,Normal,1000.0,j,1,480.0,0,0,0,,2026-05-12T10:24:37.102Z,2_B,Digit
L,1,B,11,2,120,Backward,100.0,f,1,738.0,0,0,0,,2026-05-12T10:24:47.072Z,2_B,Digit
L,1,B,12,5,300,Normal,400.0,j,1,475.0,0,0,0,,2026-05-12T10:24:52.105Z,5_B,Digit
L,1,B,15,5,60,Backward,100.0,f,1,595.0,0,0,0,,2026-05-12T10:25:07.263Z,5_B,Digit
L,1,B,18,2,120,Backward,400.0,f,1,683.0,0,0,0,,2026-05-12T10:25:22.978Z,2_B,Digit
L,1,B,19,2,0,Normal,100.0,j,1,476.0,0,0,0,,2026-05-12T10:25:27.711Z,2_B,Digit
L,1,B,20,7,0,Normal,100.0,j,1,453.0,0,0,0,,2026-05-12T10:25:32.423Z,7_B,Digit
L,1,B,26,2,120,Normal,1000.0,j,1,540.0,0,0,0,,2026-05-12T10:26:07.063Z,2_B,Digit
L,1,B,30,7,240,Normal,400.0,j,1,600.0,0,0,0,,2026-05-12T10:26:28.128Z,7_B,Digit
L,1,B,32,5,240,Backward,1000.0,f,1,1265.0,0,0,0,,2026-05-12T10:26:39.503Z,5_B,Digit
L,1,B,34,7,0,Backward,400.0,f,1,528.0,0,0,0,,2026-05-12T10:26:50.840Z,7_B,Digit
L,1,B,35,2,60,Normal,100.0,j,1,629.0,0,0,0,,2026-05-12T10:26:55.730Z,2_B,Digit
L,1,B,37,5,180,Normal,400.0,j,1,1740.0,0,0,0,,2026-05-12T10:27:06.919Z,5_B,Digit
L,1,B,38,5,240,Backward,100.0,f,1,1661.0,0,0,0,,2026-05-12T10:27:12.829Z,5_B,Digit
L,1,B,39,7,0,Normal,400.0,j,1,392.0,0,0,0,,2026-05-12T10:27:17.786Z,7_B,Digit
L,1,B,40,2,180,Normal,400.0,j,1,709.0,0,0,0,,2026-05-12T10:27:23.054Z,2_B,Digit
L,1,B,42,7,180,Normal,100.0,j,1,987.0,0,0,0,,2026-05-12T10:27:33.138Z,7_B,Digit
L,1,B,43,5,0,Backward,400.0,f,1,658.0,0,0,0,,2026-05-12T10:27:38.338Z,5_B,Digit
L,1,B,47,5,180,Normal,100.0,j,1,1153.0,0,0,0,,2026-05-12T10:28:00.603Z,5_B,Digit
L,1,B,48,2,0,Backward,1000.0,f,1,570.0,0,0,0,,2026-05-12T10:28:06.321Z,2_B,Digit
L,1,B,50,2,180,Normal,1000.0,j,1,654.0,0,0,0,,2026-05-12T10:28:17.058Z,2_B,Digit
L,1,B,52,5,0,Normal,100.0,j,1,440.0,0,0,0,,2026-05-12T10:28:27.391Z,5_B,Digit
L,1,B,55,2,240,Normal,400.0,j,1,476.0,0,0,0,,2026-05-12T10:28:42.789Z,2_B,Digit
L,1,B,56,7,60,Backward,100.0,f,1,642.0,0,0,0,,2026-05-12T10:28:47.692Z,7_B,Digit
L,1,B,58,7,240,Backward,1000.0,f,1,560.0,0,0,0,,2026-05-12T10:28:58.261Z,7_B,Digit
L,1,B,59,5,300,Backward,100.0,f,1,760.0,0,0,0,,2026-05-12T10:29:03.293Z,5_B,Digit
L,1,B,60,7,300,Backward,1000.0,f,1,477.0,0,0,0,,2026-05-12T10:29:08.934Z,7_B,Digit
L,1,B,61,5,180,Backward,100.0,,0,,1,0,0,,2026-05-12T10:29:16.213Z,5_B,Digit
L,1,B,62,7,120,Normal,100.0,j,1,815.0,0,0,0,,2026-05-12T10:29:21.282Z,7_B,Digit
L,1,B,66,7,300,Normal,1000.0,j,1,438.0,0,0,0,,2026-05-12T10:29:45.157Z,7_B,Digit
L,1,B,67,7,300,Normal,100.0,j,1,460.0,0,0,0,,2026-05-12T10:29:49.876Z,7_B,Digit
L,1,B,68,2,60,Backward,100.0,f,1,638.0,0,0,0,,2026-05-12T10:29:54.771Z,2_B,Digit
L,1,B,69,2,180,Backward,400.0,f,1,1076.0,0,0,0,,2026-05-12T10:30:00.404Z,2_B,Digit
L,1,B,72,5,0,Normal,400.0,j,1,494.0,0,0,0,,2026-05-12T10:30:16.154Z,5_B,Digit
L,1,B,73,2,240,Backward,100.0,f,1,801.0,0,0,0,,2026-05-12T10:30:21.217Z,2_B,Digit
L,1,B,76,2,240,Backward,1000.0,j,0,737.8000000119209,1,1,1,,2026-05-12T10:30:34.573Z,2_B,Digit
L,1,B,77,5,300,Normal,100.0,j,1,597.0,0,0,0,,2026-05-12T10:30:40.630Z,5_B,Digit
L,1,B,78,2,300,Backward,400.0,f,1,627.0,0,0,0,,2026-05-12T10:30:45.837Z,2_B,Digit
L,1,B,81,2,300,Backward,1000.0,f,1,591.0,0,0,0,,2026-05-12T10:31:03.097Z,2_B,Digit
L,1,B,85,2,300,Normal,1000.0,j,1,449.0,0,0,0,,2026-05-12T10:31:25.230Z,2_B,Digit
L,1,B,90,5,240,Normal,400.0,j,1,613.0,0,0,0,,2026-05-12T10:31:52.024Z,5_B,Digit
L,1,B,91,7,180,Normal,1000.0,j,1,775.0,0,0,0,,2026-05-12T10:31:57.978Z,7_B,Digit
L,1,B,92,5,240,Normal,100.0,j,1,698.0,0,0,0,,2026-05-12T10:32:02.913Z,5_B,Digit
L,1,B,95,7,120,Backward,400.0,f,1,952.0,0,0,0,,2026-05-12T10:32:18.930Z,7_B,Digit
L,1,B,97,7,180,Backward,100.0,f,1,1088.0,0,0,0,,2026-05-12T10:32:29.504Z,7_B,Digit
L,1,B,98,5,120,Backward,1000.0,f,1,1061.0,0,0,0,,2026-05-12T10:32:35.734Z,5_B,Digit
L,1,B,101,5,300,Backward,1000.0,f,1,907.0,0,0,0,,2026-05-12T10:32:53.950Z,5_B,Digit
L,1,B,102,7,300,Backward,400.0,f,1,516.0,0,0,0,,2026-05-12T10:32:59.040Z,7_B,Digit
L,1,B,107,5,60,Normal,100.0,j,1,708.0,0,0,0,,2026-05-12T10:33:24.808Z,5_B,Digit
L,1,B,113,5,120,Backward,100.0,f,1,1353.0,0,0,0,,2026-05-12T10:33:56.918Z,5_B,Digit
L,1,B,115,7,60,Backward,400.0,f,1,781.0,0,0,0,,2026-05-12T10:34:07.725Z,7_B,Digit
L,1,B,118,2,300,Normal,400.0,j,1,329.0,0,0,0,,2026-05-12T10:34:24.656Z,2_B,Digit
L,1,B,119,7,240,Normal,100.0,j,1,688.0,0,0,0,,2026-05-12T10:34:29.588Z,7_B,Digit
L,1,B,120,5,60,Normal,400.0,j,1,426.0,0,0,0,,2026-05-12T10:34:34.583Z,5_B,Digit
L,1,B,121,2,60,Backward,1000.0,f,1,735.0,0,0,0,,2026-05-12T10:34:40.471Z,2_B,Digit
L,1,B,122,2,120,Normal,400.0,j,1,510.0,0,0,0,,2026-05-12T10:34:45.536Z,2_B,Digit
L,1,B,123,2,0,Normal,400.0,j,1,325.0,0,0,0,,2026-05-12T10:34:50.419Z,2_B,Digit
L,1,B,129,7,120,Normal,1000.0,j,1,648.0,0,0,0,,2026-05-12T10:35:22.953Z,7_B,Digit
L,1,B,133,7,120,Backward,100.0,f,1,780.0,0,0,0,,2026-05-12T10:35:44.578Z,7_B,Digit
L,1,B,134,7,180,Backward,1000.0,f,1,1089.0,0,0,0,,2026-05-12T10:35:50.810Z,7_B,Digit
L,1,B,135,5,120,Normal,100.0,j,1,725.0,0,0,0,,2026-05-12T10:35:55.791Z,5_B,Digit
L,1,B,138,2,240,Backward,400.0,f,1,681.0,0,0,0,,2026-05-12T10:36:12.388Z,2_B,Digit
L,1,B,142,7,60,Normal,400.0,f,0,453.0,0,0,0,,2026-05-12T10:36:33.459Z,7_B,Digit
L,1,B,144,5,60,Backward,1000.0,f,1,961.0,0,0,0,,2026-05-12T10:36:45.794Z,5_B,Digit
L,1,B,148,5,240,Backward,400.0,f,1,864.0,0,0,0,,2026-05-12T10:37:07.190Z,5_B,Digit
L,1,B,149,7,120,Normal,400.0,j,1,438.0,0,0,0,,2026-05-12T10:37:12.213Z,7_B,Digit
L,1,B,151,5,180,Backward,400.0,j,0,1922.0,0,0,0,,2026-05-12T10:37:24.383Z,5_B,Digit
L,1,B,152,5,180,Backward,1000.0,,0,,1,0,0,,2026-05-12T10:37:32.537Z,5_B,Digit
L,1,B,153,5,120,Normal,400.0,j,1,667.0,0,0,0,,2026-05-12T10:37:37.775Z,5_B,Digit
L,1,B,154,7,60,Backward,1000.0,f,1,540.0,0,0,0,,2026-05-12T10:37:43.458Z,7_B,Digit
L,1,B,156,5,60,Backward,400.0,f,1,658.0,0,0,0,,2026-05-12T10:37:54.335Z,5_B,Digit
L,1,B,157,5,120,Normal,1000.0,j,1,729.0,0,0,0,,2026-05-12T10:38:00.231Z,5_B,Digit
L,1,B,166,2,0,Backward,100.0,f,1,626.0,0,0,0,,2026-05-12T10:38:49.607Z,2_B,Digit
L,1,B,167,5,0,Backward,1000.0,f,1,622.0,0,0,0,,2026-05-12T10:38:55.386Z,5_B,Digit
L,1,B,169,7,300,Normal,400.0,j,1,559.0,0,0,0,,2026-05-12T10:39:06.734Z,7_B,Digit
L,1,B,171,2,240,Normal,1000.0,j,1,569.0,0,0,0,,2026-05-12T10:39:17.588Z,2_B,Digit
L,1,B,173,5,240,Normal,1000.0,j,1,483.0,0,0,0,,2026-05-12T10:39:28.217Z,5_B,Digit
L,1,B,176,5,180,Normal,1000.0,j,1,669.0,0,0,0,,2026-05-12T10:39:45.344Z,5_B,Digit
L,1,B,177,7,240,Normal,1000.0,j,1,479.0,0,0,0,,2026-05-12T10:39:50.979Z,7_B,Digit
L,1,B,178,7,240,Backward,400.0,f,1,544.0,0,0,0,,2026-05-12T10:39:56.084Z,7_B,Digit
L,1,B,181,2,60,Normal,400.0,j,1,438.0,0,0,0,,2026-05-12T10:40:12.298Z,2_B,Digit
L,1,B,183,5,300,Normal,1000.0,j,1,383.0,0,0,0,,2026-05-12T10:40:22.886Z,5_B,Digit
L,1,B,184,5,0,Backward,100.0,f,1,635.0,0,0,0,,2026-05-12T10:40:27.783Z,5_B,Digit
L,1,B,186,5,0,Normal,1000.0,j,1,399.0,0,0,0,,2026-05-12T10:40:38.913Z,5_B,Digit
L,1,B,187,2,240,Normal,100.0,j,1,622.0,0,0,0,,2026-05-12T10:40:43.801Z,2_B,Digit
L,1,B,190,2,300,Backward,100.0,f,1,681.0,0,0,0,,2026-05-12T10:41:00.195Z,2_B,Digit
L,1,B,191,7,0,Backward,1000.0,f,1,500.0,0,0,0,,2026-05-12T10:41:05.867Z,7_B,Digit
L,1,B,192,7,240,Backward,100.0,f,1,702.0,0,0,0,,2026-05-12T10:41:10.816Z,7_B,Digit
L,1,B,194,5,120,Backward,400.0,f,1,680.0,0,0,0,,2026-05-12T10:41:21.034Z,5_B,Digit
L,1,B,195,5,300,Backward,400.0,f,1,1136.0,0,0,0,,2026-05-12T10:41:26.723Z,5_B,Digit
L,1,B,196,7,300,Backward,100.0,f,1,760.0,0,0,0,,2026-05-12T10:41:31.741Z,7_B,Digit
L,1,B,197,2,180,Backward,100.0,f,1,1166.0,0,0,0,,2026-05-12T10:41:37.163Z,2_B,Digit
L,1,B,198,7,60,Normal,100.0,j,1,531.0,0,0,0,,2026-05-12T10:41:41.945Z,7_B,Digit
L,1,B,199,2,120,Backward,1000.0,f,1,617.0,0,0,0,,2026-05-12T10:41:47.715Z,2_B,Digit
L,1,B,201,5,60,Normal,1000.0,j,1,537.0,0,0,0,,2026-05-12T10:41:59.283Z,5_B,Digit
L,1,B,204,2,60,Backward,400.0,f,1,528.0,0,0,0,,2026-05-12T10:42:13.751Z,2_B,Digit
L,1,B,209,2,300,Normal,100.0,j,1,564.0,0,0,0,,2026-05-12T10:42:39.093Z,2_B,Digit
L,1,B,210,2,180,Normal,100.0,j,1,1092.0,0,0,0,,2026-05-12T10:42:44.439Z,2_B,Digit
L,1,B,211,2,0,Normal,1000.0,j,1,538.0,0,0,0,,2026-05-12T10:42:50.117Z,2_B,Digit
L,1,B,215,7,0,Normal,1000.0,j,1,459.0,0,0,0,,2026-05-12T10:43:12.402Z,7_B,Digit
L,1,B,216,7,0,Backward,100.0,f,1,527.0,0,0,0,,2026-05-12T10:43:17.172Z,7_B,Digit
L,1,B,217,2,240,Backward,1000.0,f,1,630.0,0,0,0,,2026-05-12T10:43:22.943Z,2_B,Digit
L,1,B,107,7,60,Backward,700.0,f,1,453.0,0,0,0,,2026-05-14T11:17:11.919Z,7_B,Digit
L,1,B,53,5,0,Backward,700.0,f,1,589.0,0,0,0,,2026-05-13T13:52:27.251Z,5_B,Digit
L,1,B,117,5,300,Backward,700.0,f,1,607.0,0,0,0,,2026-05-13T13:58:29.521Z,5_B,Digit
L,1,B,201,2,0,Backward,700.0,f,1,403.0,0,0,0,,2026-05-14T11:25:39.050Z,2_B,Digit
L,1,B,265,7,240,Backward,700.0,f,1,855.0,0,0,0,,2026-05-13T14:12:09.001Z,7_B,Digit
L,1,B,165,7,180,Normal,700.0,j,1,651.0,0,0,0,,2026-05-14T11:22:23.720Z,7_B,Digit
L,1,B,235,7,120,Backward,700.0,f,1,601.0,0,0,0,,2026-05-14T11:28:39.884Z,7_B,Digit
L,1,B,168,5,120,Backward,700.0,f,1,734.0,0,0,0,,2026-05-13T14:03:09.946Z,5_B,Digit
L,1,B,280,7,60,Normal,700.0,j,1,631.0,0,0,0,,2026-05-13T14:13:33.234Z,7_B,Digit
L,1,B,119,2,120,Backward,700.0,f,1,634.0,0,0,0,,2026-05-13T13:58:40.949Z,2_B,Digit
L,1,B,211,2,60,Normal,700.0,j,1,583.0,0,0,0,,2026-05-14T11:26:29.901Z,2_B,Digit
L,1,B,132,2,180,Backward,700.0,f,1,713.0,0,0,0,,2026-05-14T11:19:26.249Z,2_B,Digit
L,1,B,91,5,240,Backward,700.0,f,1,703.0,0,0,0,,2026-05-14T11:15:48.245Z,5_B,Digit
L,1,B,91,5,120,Normal,700.0,j,1,810.0,0,0,0,,2026-05-13T13:56:02.165Z,5_B,Digit
L,1,B,200,2,180,Backward,700.0,f,1,1021.0,0,0,0,,2026-05-13T14:06:08.930Z,2_B,Digit
L,1,B,48,7,120,Normal,700.0,j,1,737.0,0,0,0,,2026-05-13T13:52:00.133Z,7_B,Digit
L,1,B,160,5,0,Backward,700.0,f,1,376.0,0,0,0,,2026-05-14T11:21:56.708Z,5_B,Digit
L,1,B,168,5,0,Normal,700.0,j,1,427.0,0,0,0,,2026-05-14T11:22:40.051Z,5_B,Digit
L,1,B,95,5,240,Normal,700.0,j,1,504.0,0,0,0,,2026-05-14T11:16:09.971Z,5_B,Digit
L,1,B,160,2,300,Normal,700.0,j,1,909.0,0,0,0,,2026-05-13T14:02:25.667Z,2_B,Digit
L,1,B,102,2,0,Backward,700.0,f,1,638.0,0,0,0,,2026-05-13T13:57:07.459Z,2_B,Digit
L,1,B,166,2,180,Normal,700.0,j,1,1493.0,0,0,0,,2026-05-13T14:02:59.413Z,2_B,Digit
L,1,B,70,7,120,Backward,700.0,f,1,950.0,0,0,0,,2026-05-13T13:54:03.446Z,7_B,Digit
L,1,B,151,5,60,Normal,700.0,j,1,405.0,0,0,0,,2026-05-13T14:01:36.169Z,5_B,Digit
L,1,B,214,2,300,Backward,700.0,f,1,553.0,0,0,0,,2026-05-13T14:07:28.297Z,2_B,Digit
L,1,B,6,2,240,Normal,700.0,j,1,587.0,0,0,0,,2026-05-14T11:08:10.098Z,2_B,Digit
L,1,B,87,2,120,Backward,700.0,f,1,566.0,0,0,0,,2026-05-14T11:15:26.202Z,2_B,Digit
L,1,B,106,2,240,Backward,700.0,f,1,871.0,0,0,0,,2026-05-13T13:57:29.225Z,2_B,Digit
L,1,B,45,7,240,Backward,700.0,f,1,606.0,0,0,0,,2026-05-14T11:11:41.307Z,7_B,Digit
L,1,B,272,2,120,Normal,700.0,j,1,866.0,0,0,0,,2026-05-13T14:12:48.986Z,2_B,Digit
L,1,B,209,7,300,Normal,700.0,j,1,620.0,0,0,0,,2026-05-13T14:07:02.290Z,7_B,Digit
L,1,B,18,7,240,Normal,700.0,j,1,853.0,0,0,0,,2026-05-13T13:49:12.182Z,7_B,Digit
L,1,B,19,5,120,Backward,700.0,f,1,837.0,0,0,0,,2026-05-14T11:09:23.289Z,5_B,Digit
L,1,B,38,5,300,Backward,700.0,f,1,502.0,0,0,0,,2026-05-14T11:11:05.120Z,5_B,Digit
L,1,C,1,5,0,Normal,,j,1,1273.0,0,0,0,,2026-05-12T10:43:41.895Z,5_C,Digit
L,1,C,2,5,180,Backward,,f,1,1301.0,0,0,0,,2026-05-12T10:43:47.342Z,5_C,Digit
L,1,C,4,2,60,Normal,,j,1,230.0,0,0,0,,2026-05-12T10:43:56.119Z,2_C,Digit
L,1,C,7,7,180,Normal,,j,1,212.0,0,0,0,,2026-05-12T10:44:09.101Z,7_C,Digit
L,1,C,8,7,60,Backward,,f,1,482.0,0,0,0,,2026-05-12T10:44:13.739Z,7_C,Digit
L,1,C,9,5,60,Normal,,j,1,325.0,0,0,0,,2026-05-12T10:44:18.215Z,5_C,Digit
L,1,C,10,5,120,Normal,,j,1,312.0,0,0,0,,2026-05-12T10:44:22.683Z,5_C,Digit
L,1,C,11,2,120,Backward,,f,1,108.0,1,0,0,,2026-05-12T10:44:26.948Z,2_C,Digit
L,1,C,14,5,240,Normal,,j,1,204.0,0,0,0,,2026-05-12T10:44:39.758Z,5_C,Digit
L,1,C,15,2,300,Normal,,j,1,203.0,0,0,0,,2026-05-12T10:44:44.111Z,2_C,Digit
L,1,C,19,2,240,Backward,,f,1,179.0,0,0,0,,2026-05-12T10:45:01.602Z,2_C,Digit
L,1,C,21,7,0,Normal,,j,0,330.7000000476837,1,1,1,,2026-05-12T10:45:09.954Z,7_C,Digit
L,1,C,22,7,240,Normal,,j,1,243.0,0,0,0,,2026-05-12T10:45:14.433Z,7_C,Digit
L,1,C,24,7,60,Normal,,j,0,802.3999999761581,1,1,1,,2026-05-12T10:45:21.382Z,7_C,Digit
L,1,C,25,5,120,Backward,,f,1,742.0,0,0,0,,2026-05-12T10:45:27.496Z,5_C,Digit
L,1,C,26,2,0,Backward,,f,0,843.5,1,1,1,,2026-05-12T10:45:30.074Z,2_C,Digit
L,1,C,30,2,240,Normal,,j,1,320.0,0,0,0,,2026-05-12T10:45:48.991Z,2_C,Digit
L,1,C,32,7,0,Backward,,f,1,569.0,0,0,0,,2026-05-12T10:45:58.009Z,7_C,Digit
L,1,C,37,7,180,Backward,,f,1,871.0,0,0,0,,2026-05-12T10:46:20.392Z,7_C,Digit
L,1,C,39,7,120,Backward,,f,1,215.0,0,0,0,,2026-05-12T10:46:29.268Z,7_C,Digit
L,1,C,42,2,60,Backward,,f,1,210.0,0,0,0,,2026-05-12T10:46:42.366Z,2_C,Digit
L,1,C,43,7,120,Normal,,j,0,289.80000001192093,1,1,1,,2026-05-12T10:46:46.398Z,7_C,Digit
L,1,C,45,5,240,Backward,,f,1,232.0,0,0,0,,2026-05-12T10:46:55.306Z,5_C,Digit
L,1,C,47,2,180,Normal,,j,1,246.0,0,0,0,,2026-05-12T10:47:04.036Z,2_C,Digit
L,1,C,48,2,0,Normal,,j,1,176.0,0,0,0,,2026-05-12T10:47:08.366Z,2_C,Digit
L,1,C,50,7,300,Normal,,j,0,1442.0,1,1,1,,2026-05-12T10:47:15.745Z,7_C,Digit
L,1,C,51,7,240,Backward,,f,1,217.0,0,0,0,,2026-05-12T10:47:20.690Z,7_C,Digit
L,1,C,55,2,180,Backward,,f,1,210.0,0,0,0,,2026-05-12T10:47:38.749Z,2_C,Digit
L,1,C,59,5,300,Backward,,f,1,212.0,0,0,0,,2026-05-12T10:47:56.218Z,5_C,Digit
L,1,C,60,2,120,Normal,,j,1,180.0,0,0,0,,2026-05-12T10:48:00.551Z,2_C,Digit
L,1,C,63,5,300,Normal,,j,1,216.0,0,0,0,,2026-05-12T10:48:13.702Z,5_C,Digit
L,1,C,65,7,300,Backward,,f,1,1055.0,0,0,0,,2026-05-12T10:48:23.226Z,7_C,Digit
L,1,C,70,5,180,Normal,,j,1,226.0,0,0,0,,2026-05-12T10:48:44.996Z,5_C,Digit
L,1,C,72,5,60,Backward,,f,1,127.0,1,0,0,,2026-05-12T10:48:53.582Z,5_C,Digit
L,1,C,73,7,0,Normal,,j,0,1262.899999976158,1,1,1,,2026-05-12T10:48:56.576Z,7_C,Digit
L,1,C,74,7,60,Normal,,j,0,660.6999999880791,1,1,1,,2026-05-12T10:48:59.706Z,7_C,Digit
L,1,C,75,2,0,Backward,,f,1,276.0,0,0,0,,2026-05-12T10:49:05.332Z,2_C,Digit
L,1,C,77,7,120,Normal,,j,1,353.0,0,0,0,,2026-05-12T10:49:14.205Z,7_C,Digit
L,1,C,78,7,300,Normal,,j,1,387.0,0,0,0,,2026-05-12T10:49:18.741Z,7_C,Digit
L,1,C,79,7,0,Normal,,j,1,232.0,0,0,0,,2026-05-12T10:49:23.117Z,7_C,Digit
L,1,C,80,7,60,Normal,,j,1,200.0,0,0,0,,2026-05-12T10:49:27.455Z,7_C,Digit
C,1,N,2,2,0,Normal,,j,1,457.0,0,0,0,,2026-05-14T10:49:40.148Z,2_N,Digit
C,1,N,3,5,60,Normal,,j,1,480.0,0,0,0,,2026-05-14T10:49:42.348Z,5_N,Digit
C,1,N,4,5,120,Normal,,j,1,846.0,0,0,0,,2026-05-14T10:49:44.935Z,5_N,Digit
C,1,N,7,5,180,Backward,,f,1,637.0,0,0,0,,2026-05-14T10:49:51.891Z,5_N,Digit
C,1,N,9,2,300,Backward,,f,1,607.0,0,0,0,,2026-05-14T10:49:56.712Z,2_N,Digit
C,1,N,11,2,120,Backward,,f,1,814.0,0,0,0,,2026-05-14T10:50:03.302Z,2_N,Digit
C,1,N,13,2,180,Normal,,j,1,1269.0,0,0,0,,2026-05-14T10:50:08.549Z,2_N,Digit
C,1,N,14,2,120,Normal,,j,1,496.0,0,0,0,,2026-05-14T10:50:10.768Z,2_N,Digit
C,1,N,15,2,300,Normal,,j,1,491.0,0,0,0,,2026-05-14T10:50:12.977Z,2_N,Digit
C,1,N,16,7,300,Backward,,f,1,828.0,0,0,0,,2026-05-14T10:50:15.523Z,7_N,Digit
C,1,N,18,7,240,Backward,,f,1,500.0,0,0,0,,2026-05-14T10:50:20.087Z,7_N,Digit
C,1,N,20,2,240,Normal,,j,1,970.0,0,0,0,,2026-05-14T10:50:25.374Z,2_N,Digit
C,1,N,24,5,60,Backward,,f,1,628.0,0,0,0,,2026-05-14T10:50:35.123Z,5_N,Digit
C,1,N,25,7,180,Normal,,j,1,910.0,0,0,0,,2026-05-14T10:50:37.756Z,7_N,Digit
C,1,N,27,7,0,Normal,,j,1,544.0,0,0,0,,2026-05-14T10:50:42.523Z,7_N,Digit
C,1,N,28,7,60,Normal,,j,1,535.0,0,0,0,,2026-05-14T10:50:44.773Z,7_N,Digit
C,1,N,29,7,300,Normal,,j,1,515.0,0,0,0,,2026-05-14T10:50:47.017Z,7_N,Digit
C,1,N,31,5,180,Normal,,f,0,618.0,0,0,0,,2026-05-14T10:50:52.116Z,5_N,Digit
C,1,N,33,2,60,Normal,,j,1,746.0,0,0,0,,2026-05-14T10:50:57.006Z,2_N,Digit
C,1,N,34,5,0,Normal,,j,1,474.0,0,0,0,,2026-05-14T10:50:59.201Z,5_N,Digit
C,1,N,37,5,120,Backward,,f,1,577.0,0,0,0,,2026-05-14T10:51:06.152Z,5_N,Digit
C,1,N,38,5,0,Backward,,f,1,566.0,0,0,0,,2026-05-14T10:51:08.443Z,5_N,Digit
C,1,N,40,5,300,Normal,,j,1,447.0,0,0,0,,2026-05-14T10:51:13.132Z,5_N,Digit
C,1,N,41,7,60,Backward,,f,1,554.0,0,0,0,,2026-05-14T10:51:15.413Z,7_N,Digit
C,1,N,46,5,240,Backward,,f,1,1142.0,0,0,0,,2026-05-14T10:51:27.396Z,5_N,Digit
C,1,N,48,7,0,Backward,,f,1,588.0,0,0,0,,2026-05-14T10:51:32.247Z,7_N,Digit
C,1,N,49,7,240,Normal,,j,1,646.0,0,0,0,,2026-05-14T10:51:34.613Z,7_N,Digit
C,1,N,50,7,120,Backward,,f,1,611.0,0,0,0,,2026-05-14T10:51:36.937Z,7_N,Digit
C,1,N,52,5,240,Normal,,j,1,734.0,0,0,0,,2026-05-14T10:51:42.001Z,5_N,Digit
C,1,N,55,2,240,Backward,,f,1,768.0,0,0,0,,2026-05-14T10:51:50.584Z,2_N,Digit
C,1,N,56,7,120,Normal,,j,1,655.0,0,0,0,,2026-05-14T10:51:52.957Z,7_N,Digit
C,1,N,62,7,180,Backward,,f,1,600.0,0,0,0,,2026-05-14T10:52:08.938Z,7_N,Digit
C,1,N,63,5,300,Backward,,f,1,665.0,0,0,0,,2026-05-14T10:52:11.324Z,5_N,Digit
C,1,N,67,2,60,Backward,,f,1,658.0,0,0,0,,2026-05-14T10:52:21.205Z,2_N,Digit
C,1,N,68,2,180,Backward,,f,1,1414.0,0,0,0,,2026-05-14T10:52:24.356Z,2_N,Digit
C,1,N,70,2,0,Backward,,f,1,498.0,0,0,0,,2026-05-14T10:52:29.304Z,2_N,Digit
C,1,I,1,5,240,Normal,,j,1,727.0,0,0,0,,2026-05-14T10:54:49.894Z,5_I,Digit
C,1,I,2,5,120,Backward,,f,1,565.0,0,0,0,,2026-05-14T10:54:54.613Z,5_I,Digit
C,1,I,5,2,120,Normal,,j,1,686.0,0,0,0,,2026-05-14T10:55:09.044Z,2_I,Digit
C,1,I,9,7,60,Backward,,f,1,626.0,0,0,0,,2026-05-14T10:55:28.250Z,7_I,Digit
C,1,I,11,7,240,Normal,,j,1,1105.0,0,0,0,,2026-05-14T10:55:38.612Z,7_I,Digit
C,1,I,12,2,0,Backward,,f,1,500.0,0,0,0,,2026-05-14T10:55:43.255Z,2_I,Digit
C,1,I,13,7,60,Normal,,j,1,502.0,0,0,0,,2026-05-14T10:55:47.908Z,7_I,Digit
C,1,I,14,7,180,Backward,,f,1,474.0,0,0,0,,2026-05-14T10:55:52.514Z,7_I,Digit
C,1,I,15,7,0,Backward,,f,1,609.0,0,0,0,,2026-05-14T10:55:57.258Z,7_I,Digit
C,1,I,16,2,0,Normal,,j,1,654.0,0,0,0,,2026-05-14T10:56:02.052Z,2_I,Digit
C,1,I,17,5,300,Backward,,f,1,552.0,0,0,0,,2026-05-14T10:56:06.742Z,5_I,Digit
C,1,I,19,2,180,Backward,,f,1,467.0,0,0,0,,2026-05-14T10:56:16.157Z,2_I,Digit
C,1,I,20,7,240,Backward,,f,1,841.0,0,0,0,,2026-05-14T10:56:21.138Z,7_I,Digit
C,1,I,21,5,0,Backward,,f,1,628.0,0,0,0,,2026-05-14T10:56:25.915Z,5_I,Digit
C,1,I,24,5,300,Normal,,j,1,486.0,0,0,0,,2026-05-14T10:56:40.389Z,5_I,Digit
C,1,I,25,5,0,Normal,,j,1,374.0,0,0,0,,2026-05-14T10:56:44.874Z,5_I,Digit
C,1,I,27,2,300,Backward,,f,1,473.0,0,0,0,,2026-05-14T10:56:54.061Z,2_I,Digit
C,1,I,33,7,180,Normal,,f,0,410.0,0,0,0,,2026-05-14T10:57:21.807Z,7_I,Digit
C,1,I,42,5,60,Normal,,j,1,539.0,0,0,0,,2026-05-14T10:58:06.692Z,5_I,Digit
C,1,I,43,2,60,Backward,,f,1,693.0,0,0,0,,2026-05-14T10:58:11.539Z,2_I,Digit
C,1,I,44,2,120,Backward,,f,1,581.0,0,0,0,,2026-05-14T10:58:16.279Z,2_I,Digit
C,1,I,50,7,300,Backward,,f,1,618.0,0,0,0,,2026-05-14T10:58:46.779Z,7_I,Digit
C,1,I,52,7,120,Backward,,f,1,728.0,0,0,0,,2026-05-14T10:58:56.756Z,7_I,Digit
C,1,I,53,5,240,Backward,,f,1,642.0,0,0,0,,2026-05-14T10:59:01.539Z,5_I,Digit
C,1,I,56,2,180,Normal,,j,1,1414.0,0,0,0,,2026-05-14T10:59:16.729Z,2_I,Digit
C,1,I,57,7,300,Normal,,j,1,534.0,0,0,0,,2026-05-14T10:59:21.418Z,7_I,Digit
C,1,I,58,5,180,Backward,,f,1,1075.0,0,0,0,,2026-05-14T10:59:26.638Z,5_I,Digit
C,1,I,59,5,180,Normal,,j,1,858.0,0,0,0,,2026-05-14T10:59:31.649Z,5_I,Digit
C,1,I,61,2,60,Normal,,j,1,604.0,0,0,0,,2026-05-14T10:59:41.221Z,2_I,Digit
C,1,I,62,2,240,Normal,,j,1,585.0,0,0,0,,2026-05-14T10:59:45.955Z,2_I,Digit
C,1,I,64,7,120,Normal,,j,1,652.0,0,0,0,,2026-05-14T10:59:55.429Z,7_I,Digit
C,1,I,65,2,240,Backward,,f,1,1128.0,0,0,0,,2026-05-14T11:00:00.700Z,2_I,Digit
C,1,I,66,7,0,Normal,,j,1,548.0,0,0,0,,2026-05-14T11:00:05.404Z,7_I,Digit
C,1,I,68,5,60,Backward,,f,1,648.0,0,0,0,,2026-05-14T11:00:15.168Z,5_I,Digit
C,1,I,69,2,300,Normal,,j,1,471.0,0,0,0,,2026-05-14T11:00:19.773Z,2_I,Digit
C,1,I,71,5,120,Normal,,j,1,743.0,0,0,0,,2026-05-14T11:00:29.373Z,5_I,Digit
C,1,O,1,5,180,Backward,,f,1,1204.0,0,0,0,,2026-05-14T11:02:37.371Z,5_O,Digit
C,1,O,2,5,60,Backward,,f,1,695.0,0,0,0,,2026-05-14T11:02:40.198Z,5_O,Digit
C,1,O,6,2,120,Backward,,j,0,918.0,0,0,0,,2026-05-14T11:02:52.180Z,2_O,Digit
C,1,O,9,5,0,Backward,,f,1,647.0,0,0,0,,2026-05-14T11:03:00.912Z,5_O,Digit
C,1,O,10,5,120,Normal,,j,1,737.0,0,0,0,,2026-05-14T11:03:03.777Z,5_O,Digit
C,1,O,12,7,0,Normal,,j,1,528.0,0,0,0,,2026-05-14T11:03:09.376Z,7_O,Digit
C,1,O,14,2,300,Backward,,f,1,780.0,0,0,0,,2026-05-14T11:03:15.890Z,2_O,Digit
C,1,O,16,2,60,Normal,,j,1,521.0,0,0,0,,2026-05-14T11:03:21.767Z,2_O,Digit
C,1,O,18,5,60,Normal,,j,1,468.0,0,0,0,,2026-05-14T11:03:27.368Z,5_O,Digit
C,1,O,21,5,180,Normal,,j,1,1886.0,0,0,0,,2026-05-14T11:03:37.203Z,5_O,Digit
C,1,O,22,5,120,Backward,,f,1,694.0,0,0,0,,2026-05-14T11:03:40.044Z,5_O,Digit
C,1,O,23,5,240,Backward,,f,1,936.0,0,0,0,,2026-05-14T11:03:43.134Z,5_O,Digit
C,1,O,26,2,300,Normal,,j,1,551.0,0,0,0,,2026-05-14T11:03:51.308Z,2_O,Digit
C,1,O,27,5,300,Normal,,j,1,490.0,0,0,0,,2026-05-14T11:03:53.939Z,5_O,Digit
C,1,O,29,2,180,Backward,,f,1,1404.0,0,0,0,,2026-05-14T11:04:00.211Z,2_O,Digit
C,1,O,34,5,300,Backward,,f,1,737.0,0,0,0,,2026-05-14T11:04:15.727Z,5_O,Digit
C,1,O,35,2,240,Normal,,j,1,989.0,0,0,0,,2026-05-14T11:04:18.846Z,2_O,Digit
C,1,O,36,5,240,Normal,,j,1,631.0,0,0,0,,2026-05-14T11:04:21.603Z,5_O,Digit
C,1,O,38,7,120,Backward,,f,1,1197.0,0,0,0,,2026-05-14T11:04:27.906Z,7_O,Digit
C,1,O,39,2,240,Backward,,f,1,1120.0,0,0,0,,2026-05-14T11:04:31.170Z,2_O,Digit
C,1,O,40,7,240,Normal,,j,1,638.0,0,0,0,,2026-05-14T11:04:33.954Z,7_O,Digit
C,1,O,44,2,0,Normal,,j,1,481.0,0,0,0,,2026-05-14T11:04:46.430Z,2_O,Digit
C,1,O,45,7,60,Normal,,j,1,526.0,0,0,0,,2026-05-14T11:04:49.082Z,7_O,Digit
C,1,O,47,2,120,Normal,,j,1,567.0,0,0,0,,2026-05-14T11:04:55.008Z,2_O,Digit
C,1,O,50,2,180,Normal,,j,1,787.0,0,0,0,,2026-05-14T11:05:04.442Z,2_O,Digit
C,1,O,51,2,60,Backward,,f,1,631.0,0,0,0,,2026-05-14T11:05:07.206Z,2_O,Digit
C,1,O,52,7,180,Normal,,j,1,918.0,0,0,0,,2026-05-14T11:05:10.266Z,7_O,Digit
C,1,O,53,7,240,Backward,,f,1,789.0,0,0,0,,2026-05-14T11:05:13.195Z,7_O,Digit
C,1,O,56,5,0,Normal,,j,1,600.0,0,0,0,,2026-05-14T11:05:21.651Z,5_O,Digit
C,1,O,58,7,120,Normal,,j,1,687.0,0,0,0,,2026-05-14T11:05:27.429Z,7_O,Digit
C,1,O,63,7,300,Backward,,f,1,536.0,0,0,0,,2026-05-14T11:05:41.356Z,7_O,Digit
C,1,O,65,7,60,Backward,,f,1,659.0,0,0,0,,2026-05-14T11:05:47.095Z,7_O,Digit
C,1,O,66,2,0,Backward,,f,1,519.0,0,0,0,,2026-05-14T11:05:49.750Z,2_O,Digit
C,1,O,69,7,0,Backward,,f,1,533.0,0,0,0,,2026-05-14T11:05:58.198Z,7_O,Digit
C,1,O,70,7,180,Backward,,f,1,1102.0,0,0,0,,2026-05-14T11:06:01.432Z,7_O,Digit
C,1,O,72,7,300,Normal,,j,1,658.0,0,0,0,,2026-05-14T11:06:07.012Z,7_O,Digit
C,1,B,1,7,300,Normal,1000.0,j,1,505.0,0,0,0,,2026-05-14T11:07:43.868Z,7_B,Digit
C,1,B,2,2,300,Normal,400.0,j,1,596.0,0,0,0,,2026-05-14T11:07:49.008Z,2_B,Digit
C,1,B,3,2,0,Normal,100.0,j,1,496.0,0,0,0,,2026-05-14T11:07:53.748Z,2_B,Digit
C,1,B,5,2,300,Normal,1000.0,j,1,452.0,0,0,0,,2026-05-14T11:08:04.664Z,2_B,Digit
C,1,B,6,2,240,Normal,700.0,j,1,587.0,0,0,0,,2026-05-14T11:08:10.098Z,2_B,Digit
C,1,B,7,2,180,Normal,700.0,j,1,938.0,0,0,0,,2026-05-14T11:08:15.882Z,2_B,Digit
C,1,B,9,2,240,Backward,100.0,f,1,821.0,0,0,0,,2026-05-14T11:08:26.675Z,2_B,Digit
C,1,B,10,5,0,Backward,100.0,f,1,822.0,0,0,0,,2026-05-14T11:08:31.750Z,5_B,Digit
C,1,B,11,7,180,Backward,700.0,f,1,1036.0,0,0,0,,2026-05-14T11:08:37.630Z,7_B,Digit
C,1,B,19,5,120,Backward,700.0,f,1,837.0,0,0,0,,2026-05-14T11:09:23.289Z,5_B,Digit
C,1,B,22,7,60,Normal,700.0,j,1,423.0,0,0,0,,2026-05-14T11:09:39.500Z,7_B,Digit
C,1,B,25,5,180,Backward,100.0,f,1,773.0,0,0,0,,2026-05-14T11:09:55.151Z,5_B,Digit
C,1,B,28,7,0,Backward,700.0,f,1,407.0,0,0,0,,2026-05-14T11:10:12.408Z,7_B,Digit
C,1,B,29,5,120,Backward,400.0,f,1,654.0,0,0,0,,2026-05-14T11:10:17.598Z,5_B,Digit
C,1,B,30,5,180,Backward,400.0,f,1,519.0,0,0,0,,2026-05-14T11:10:22.663Z,5_B,Digit
C,1,B,31,7,60,Normal,1000.0,j,1,471.0,0,0,0,,2026-05-14T11:10:28.283Z,7_B,Digit
C,1,B,34,2,300,Backward,100.0,f,1,639.0,0,0,0,,2026-05-14T11:10:44.349Z,2_B,Digit
C,1,B,36,7,120,Normal,100.0,j,1,798.0,0,0,0,,2026-05-14T11:10:54.789Z,7_B,Digit
C,1,B,38,5,300,Backward,700.0,f,1,502.0,0,0,0,,2026-05-14T11:11:05.120Z,5_B,Digit
C,1,B,39,5,120,Normal,100.0,j,1,738.0,0,0,0,,2026-05-14T11:11:10.093Z,5_B,Digit
C,1,B,40,5,60,Normal,1000.0,j,1,458.0,0,0,0,,2026-05-14T11:11:15.692Z,5_B,Digit
C,1,B,42,5,300,Normal,400.0,j,1,518.0,0,0,0,,2026-05-14T11:11:25.860Z,5_B,Digit
C,1,B,45,7,240,Backward,700.0,f,1,606.0,0,0,0,,2026-05-14T11:11:41.307Z,7_B,Digit
C,1,B,48,2,120,Backward,400.0,f,1,579.0,0,0,0,,2026-05-14T11:11:57.347Z,2_B,Digit
C,1,B,49,7,60,Normal,400.0,j,1,734.0,0,0,0,,2026-05-14T11:12:02.639Z,7_B,Digit
C,1,B,52,5,120,Backward,100.0,f,1,703.0,0,0,0,,2026-05-14T11:12:18.329Z,5_B,Digit
C,1,B,53,5,180,Backward,1000.0,f,1,1099.0,0,0,0,,2026-05-14T11:12:24.599Z,5_B,Digit
C,1,B,57,7,240,Normal,1000.0,j,1,543.0,0,0,0,,2026-05-14T11:12:47.888Z,7_B,Digit
C,1,B,60,5,300,Normal,700.0,j,1,588.0,0,0,0,,2026-05-14T11:13:04.290Z,5_B,Digit
C,1,B,63,2,300,Normal,700.0,j,1,455.0,0,0,0,,2026-05-14T11:13:20.439Z,2_B,Digit
C,1,B,66,5,180,Normal,400.0,f,0,570.0,0,0,0,,2026-05-14T11:13:35.298Z,5_B,Digit
C,1,B,70,5,60,Backward,1000.0,f,1,368.0,0,0,0,,2026-05-14T11:13:56.655Z,5_B,Digit
C,1,B,71,7,0,Normal,700.0,j,1,493.0,0,0,0,,2026-05-14T11:14:02.001Z,7_B,Digit
C,1,B,72,5,240,Backward,1000.0,f,1,754.0,0,0,0,,2026-05-14T11:14:07.880Z,5_B,Digit
C,1,B,73,7,240,Normal,700.0,j,1,555.0,0,0,0,,2026-05-14T11:14:13.275Z,7_B,Digit
C,1,B,74,2,0,Normal,1000.0,j,1,418.0,0,0,0,,2026-05-14T11:14:18.833Z,2_B,Digit
C,1,B,77,2,120,Normal,400.0,j,1,640.0,0,0,0,,2026-05-14T11:14:33.636Z,2_B,Digit
C,1,B,79,2,60,Backward,700.0,f,1,662.0,0,0,0,,2026-05-14T11:14:45.375Z,2_B,Digit
C,1,B,84,5,180,Normal,100.0,f,0,615.0,0,0,0,,2026-05-14T11:15:10.634Z,5_B,Digit
C,1,B,85,7,0,Backward,100.0,f,1,557.0,0,0,0,,2026-05-14T11:15:15.435Z,7_B,Digit
C,1,B,87,2,120,Backward,700.0,f,1,566.0,0,0,0,,2026-05-14T11:15:26.202Z,2_B,Digit
C,1,B,90,5,0,Backward,1000.0,f,1,554.0,0,0,0,,2026-05-14T11:15:42.693Z,5_B,Digit
C,1,B,91,5,240,Backward,700.0,f,1,703.0,0,0,0,,2026-05-14T11:15:48.245Z,5_B,Digit
C,1,B,92,5,300,Normal,1000.0,j,1,503.0,0,0,0,,2026-05-14T11:15:53.875Z,5_B,Digit
C,1,B,93,2,0,Backward,1000.0,f,1,428.0,0,0,0,,2026-05-14T11:15:59.450Z,2_B,Digit
C,1,B,95,5,240,Normal,700.0,j,1,504.0,0,0,0,,2026-05-14T11:16:09.971Z,5_B,Digit
C,1,B,96,2,60,Normal,100.0,j,1,439.0,0,0,0,,2026-05-14T11:16:14.649Z,2_B,Digit
C,1,B,97,7,240,Normal,100.0,j,1,750.0,0,0,0,,2026-05-14T11:16:19.656Z,7_B,Digit
C,1,B,98,7,180,Backward,100.0,f,1,1216.0,0,0,0,,2026-05-14T11:16:25.121Z,7_B,Digit
C,1,B,99,2,300,Normal,100.0,j,1,506.0,0,0,0,,2026-05-14T11:16:29.885Z,2_B,Digit
C,1,B,101,5,60,Backward,100.0,f,1,627.0,0,0,0,,2026-05-14T11:16:40.460Z,5_B,Digit
C,1,B,102,7,180,Normal,400.0,j,1,773.0,0,0,0,,2026-05-14T11:16:45.782Z,7_B,Digit
C,1,B,103,5,60,Backward,700.0,f,1,431.0,0,0,0,,2026-05-14T11:16:51.057Z,5_B,Digit
C,1,B,106,7,240,Backward,400.0,f,1,497.0,0,0,0,,2026-05-14T11:17:06.612Z,7_B,Digit
C,1,B,107,7,60,Backward,700.0,f,1,453.0,0,0,0,,2026-05-14T11:17:11.919Z,7_B,Digit
C,1,B,108,2,240,Backward,1000.0,f,1,484.0,0,0,0,,2026-05-14T11:17:17.557Z,2_B,Digit
C,1,B,111,5,240,Normal,400.0,j,1,701.0,0,0,0,,2026-05-14T11:17:34.112Z,5_B,Digit
C,1,B,115,2,120,Normal,100.0,j,1,702.0,0,0,0,,2026-05-14T11:17:56.145Z,2_B,Digit
C,1,B,116,7,60,Backward,1000.0,f,1,349.0,0,0,0,,2026-05-14T11:18:01.640Z,7_B,Digit
C,1,B,118,5,120,Backward,1000.0,f,1,473.0,0,0,0,,2026-05-14T11:18:12.123Z,5_B,Digit
C,1,B,120,5,120,Normal,400.0,j,1,489.0,0,0,0,,2026-05-14T11:18:22.230Z,5_B,Digit
C,1,B,121,5,240,Normal,1000.0,j,1,560.0,0,0,0,,2026-05-14T11:18:27.935Z,5_B,Digit
C,1,B,123,7,300,Backward,1000.0,f,1,365.0,0,0,0,,2026-05-14T11:18:38.326Z,7_B,Digit
C,1,B,126,5,240,Normal,100.0,j,1,643.0,0,0,0,,2026-05-14T11:18:54.387Z,5_B,Digit
C,1,B,128,7,300,Normal,700.0,j,1,439.0,0,0,0,,2026-05-14T11:19:04.982Z,7_B,Digit
C,1,B,129,7,0,Normal,1000.0,j,1,414.0,0,0,0,,2026-05-14T11:19:10.565Z,7_B,Digit
C,1,B,130,5,300,Backward,100.0,f,1,518.0,0,0,0,,2026-05-14T11:19:15.320Z,5_B,Digit
C,1,B,132,2,180,Backward,700.0,f,1,713.0,0,0,0,,2026-05-14T11:19:26.249Z,2_B,Digit
C,1,B,134,7,180,Backward,1000.0,f,1,899.0,0,0,0,,2026-05-14T11:19:37.478Z,7_B,Digit
C,1,B,136,2,240,Backward,700.0,f,1,1007.0,0,0,0,,2026-05-14T11:19:48.922Z,2_B,Digit
C,1,B,137,7,180,Normal,1000.0,j,1,905.0,0,0,0,,2026-05-14T11:19:54.992Z,7_B,Digit
C,1,B,138,2,180,Normal,1000.0,j,1,629.0,0,0,0,,2026-05-14T11:20:00.774Z,2_B,Digit
C,1,B,142,5,0,Backward,400.0,f,1,425.0,0,0,0,,2026-05-14T11:20:21.643Z,5_B,Digit
C,1,B,143,2,0,Normal,700.0,j,1,443.0,0,0,0,,2026-05-14T11:20:26.954Z,2_B,Digit
C,1,B,146,2,60,Normal,1000.0,j,1,478.0,0,0,0,,2026-05-14T11:20:42.975Z,2_B,Digit
C,1,B,148,7,0,Normal,100.0,j,1,544.0,0,0,0,,2026-05-14T11:20:53.731Z,7_B,Digit
C,1,B,151,5,300,Normal,100.0,j,1,699.0,0,0,0,,2026-05-14T11:21:09.670Z,5_B,Digit
C,1,B,152,7,0,Backward,400.0,f,1,528.0,0,0,0,,2026-05-14T11:21:14.721Z,7_B,Digit
C,1,B,155,2,180,Backward,400.0,f,1,969.0,0,0,0,,2026-05-14T11:21:30.447Z,2_B,Digit
C,1,B,156,2,180,Backward,100.0,f,1,1081.0,0,0,0,,2026-05-14T11:21:35.763Z,2_B,Digit
C,1,B,159,2,0,Normal,400.0,j,1,578.0,0,0,0,,2026-05-14T11:21:51.472Z,2_B,Digit
C,1,B,160,5,0,Backward,700.0,f,1,376.0,0,0,0,,2026-05-14T11:21:56.708Z,5_B,Digit
C,1,B,161,7,180,Normal,100.0,j,1,1278.0,0,0,0,,2026-05-14T11:22:02.244Z,7_B,Digit
C,1,B,163,5,240,Backward,100.0,f,1,663.0,0,0,0,,2026-05-14T11:22:13.117Z,5_B,Digit
C,1,B,165,7,180,Normal,700.0,j,1,651.0,0,0,0,,2026-05-14T11:22:23.720Z,7_B,Digit
C,1,B,167,2,60,Normal,400.0,j,1,461.0,0,0,0,,2026-05-14T11:22:34.786Z,2_B,Digit
C,1,B,168,5,0,Normal,700.0,j,1,427.0,0,0,0,,2026-05-14T11:22:40.051Z,5_B,Digit
C,1,B,170,7,0,Backward,1000.0,f,1,393.0,0,0,0,,2026-05-14T11:22:50.712Z,7_B,Digit
C,1,B,173,2,180,Normal,400.0,j,1,703.0,0,0,0,,2026-05-14T11:23:07.535Z,2_B,Digit
C,1,B,174,2,180,Backward,1000.0,f,1,627.0,0,0,0,,2026-05-14T11:23:13.310Z,2_B,Digit
C,1,B,175,7,0,Normal,400.0,j,1,491.0,0,0,0,,2026-05-14T11:23:18.338Z,7_B,Digit
C,1,B,181,2,120,Normal,1000.0,j,1,549.0,0,0,0,,2026-05-14T11:23:51.063Z,2_B,Digit
C,1,B,182,2,120,Backward,1000.0,f,1,563.0,0,0,0,,2026-05-14T11:23:56.786Z,2_B,Digit
C,1,B,188,5,300,Backward,400.0,f,1,484.0,0,0,0,,2026-05-14T11:24:28.602Z,5_B,Digit
C,1,B,192,5,60,Backward,400.0,f,1,563.0,0,0,0,,2026-05-14T11:24:50.789Z,5_B,Digit
C,1,B,194,5,120,Normal,700.0,j,1,660.0,0,0,0,,2026-05-14T11:25:02.253Z,5_B,Digit
C,1,B,197,7,240,Backward,100.0,f,1,954.0,0,0,0,,2026-05-14T11:25:19.210Z,7_B,Digit
C,1,B,200,7,60,Normal,100.0,j,1,522.0,0,0,0,,2026-05-14T11:25:33.796Z,7_B,Digit
C,1,B,201,2,0,Backward,700.0,f,1,403.0,0,0,0,,2026-05-14T11:25:39.050Z,2_B,Digit
C,1,B,202,7,300,Backward,100.0,f,1,520.0,0,0,0,,2026-05-14T11:25:43.823Z,7_B,Digit
C,1,B,203,2,300,Backward,700.0,f,1,515.0,0,0,0,,2026-05-14T11:25:49.183Z,2_B,Digit
C,1,B,205,2,0,Backward,400.0,f,1,529.0,0,0,0,,2026-05-14T11:25:59.347Z,2_B,Digit
C,1,B,206,7,300,Normal,400.0,j,1,577.0,0,0,0,,2026-05-14T11:26:04.471Z,7_B,Digit
C,1,B,208,2,120,Backward,100.0,f,1,864.0,0,0,0,,2026-05-14T11:26:14.440Z,2_B,Digit
C,1,B,210,2,180,Normal,100.0,j,1,953.0,0,0,0,,2026-05-14T11:26:24.464Z,2_B,Digit
C,1,B,211,2,60,Normal,700.0,j,1,583.0,0,0,0,,2026-05-14T11:26:29.901Z,2_B,Digit
C,1,B,212,5,60,Normal,100.0,j,1,444.0,0,0,0,,2026-05-14T11:26:34.611Z,5_B,Digit
C,1,B,213,2,240,Backward,400.0,f,1,1127.0,0,0,0,,2026-05-14T11:26:40.282Z,2_B,Digit
C,1,B,216,2,300,Backward,1000.0,f,1,637.0,0,0,0,,2026-05-14T11:26:56.525Z,2_B,Digit
C,1,B,218,7,240,Backward,1000.0,f,1,1039.0,0,0,0,,2026-05-14T11:27:08.494Z,7_B,Digit
C,1,B,224,7,120,Normal,1000.0,j,1,455.0,0,0,0,,2026-05-14T11:27:39.971Z,7_B,Digit
C,1,B,228,5,180,Normal,700.0,j,1,670.0,0,0,0,,2026-05-14T11:28:02.034Z,5_B,Digit
C,1,B,232,7,120,Backward,400.0,f,1,605.0,0,0,0,,2026-05-14T11:28:24.052Z,7_B,Digit
C,1,B,234,5,0,Normal,400.0,j,1,428.0,0,0,0,,2026-05-14T11:28:34.431Z,5_B,Digit
C,1,B,235,7,120,Backward,700.0,f,1,601.0,0,0,0,,2026-05-14T11:28:39.884Z,7_B,Digit
C,1,B,236,5,60,Normal,700.0,j,1,460.0,0,0,0,,2026-05-14T11:28:45.193Z,5_B,Digit
C,1,B,239,5,240,Backward,400.0,f,1,795.0,0,0,0,,2026-05-14T11:29:01.902Z,5_B,Digit
C,1,B,241,7,300,Normal,100.0,j,1,747.0,0,0,0,,2026-05-14T11:29:12.187Z,7_B,Digit
C,1,B,242,2,300,Backward,400.0,f,1,434.0,0,0,0,,2026-05-14T11:29:17.158Z,2_B,Digit
C,1,B,243,5,60,Normal,400.0,j,1,489.0,0,0,0,,2026-05-14T11:29:22.187Z,5_B,Digit
C,1,B,245,2,120,Normal,700.0,f,0,478.0,0,0,0,,2026-05-14T11:29:33.164Z,2_B,Digit
C,1,C,1,7,240,Normal,,j,1,394.0,0,0,0,,2026-05-14T11:34:43.678Z,7_C,Digit
C,1,C,3,5,180,Normal,,j,1,273.0,0,0,0,,2026-05-14T11:34:52.557Z,5_C,Digit
C,1,C,4,2,60,Backward,,f,1,262.0,0,0,0,,2026-05-14T11:34:56.968Z,2_C,Digit
C,1,C,6,2,120,Backward,,f,1,182.0,0,0,0,,2026-05-14T11:35:05.798Z,2_C,Digit
C,1,C,9,7,60,Normal,,j,1,407.0,0,0,0,,2026-05-14T11:35:18.963Z,7_C,Digit
C,1,C,10,2,120,Normal,,j,1,189.0,0,0,0,,2026-05-14T11:35:23.298Z,2_C,Digit
C,1,C,14,2,240,Normal,,j,1,219.0,0,0,0,,2026-05-14T11:35:40.379Z,2_C,Digit
C,1,C,16,2,180,Normal,,j,1,117.0,1,0,0,,2026-05-14T11:35:48.838Z,2_C,Digit
C,1,C,19,7,300,Backward,,f,1,253.0,0,0,0,,2026-05-14T11:36:01.855Z,7_C,Digit
C,1,C,20,5,0,Backward,,f,1,294.0,0,0,0,,2026-05-14T11:36:06.284Z,5_C,Digit
C,1,C,24,5,240,Backward,,f,1,314.0,0,0,0,,2026-05-14T11:36:23.847Z,5_C,Digit
C,1,C,25,2,0,Normal,,j,1,133.0,1,0,0,,2026-05-14T11:36:28.123Z,2_C,Digit
C,1,C,28,5,240,Normal,,j,1,101.0,1,0,0,,2026-05-14T11:36:41.149Z,5_C,Digit
C,1,C,29,7,60,Backward,,f,1,209.0,0,0,0,,2026-05-14T11:36:45.490Z,7_C,Digit
C,1,C,32,7,300,Normal,,j,1,333.0,0,0,0,,2026-05-14T11:36:59.489Z,7_C,Digit
C,1,C,33,7,240,Backward,,f,1,198.0,0,0,0,,2026-05-14T11:37:03.834Z,7_C,Digit
C,1,C,35,5,60,Backward,,f,1,207.0,0,0,0,,2026-05-14T11:37:12.446Z,5_C,Digit
C,1,C,36,2,60,Normal,,j,1,188.0,0,0,0,,2026-05-14T11:37:16.767Z,2_C,Digit
C,1,C,37,7,120,Normal,,j,1,111.0,1,0,0,,2026-05-14T11:37:21.024Z,7_C,Digit
C,1,C,39,2,180,Backward,,f,0,370.7000000001863,1,1,1,,2026-05-14T11:37:29.596Z,2_C,Digit
C,1,C,40,2,240,Backward,,f,1,201.0,0,0,0,,2026-05-14T11:37:33.960Z,2_C,Digit
C,1,C,41,5,300,Backward,,f,1,402.0,0,0,0,,2026-05-14T11:37:38.501Z,5_C,Digit
C,1,C,45,5,120,Backward,,f,1,221.0,0,0,0,,2026-05-14T11:37:56.015Z,5_C,Digit
C,1,C,56,7,0,Normal,,j,1,170.0,0,0,0,,2026-05-14T11:38:43.864Z,7_C,Digit
C,1,C,59,5,120,Normal,,j,1,189.0,0,0,0,,2026-05-14T11:38:56.669Z,5_C,Digit
C,1,C,60,2,0,Backward,,f,1,250.0,0,0,0,,2026-05-14T11:39:01.052Z,2_C,Digit
C,1,C,62,5,0,Normal,,j,1,256.0,0,0,0,,2026-05-14T11:39:09.715Z,5_C,Digit
C,1,C,65,2,300,Normal,,j,1,270.0,0,0,0,,2026-05-14T11:39:22.528Z,2_C,Digit
C,1,C,68,5,180,Backward,,f,1,171.0,0,0,0,,2026-05-14T11:39:35.409Z,5_C,Digit
C,1,C,71,7,120,Backward,,f,1,317.0,0,0,0,,2026-05-14T11:39:48.447Z,7_C,Digit
C,1,C,72,7,180,Backward,,f,1,248.0,0,0,0,,2026-05-14T11:39:52.864Z,7_C,Digit
C,1,C,74,2,180,Backward,,f,1,310.0,0,0,0,,2026-05-14T11:40:01.728Z,2_C,Digit
