Subject_ID,Session,Block_Type,Trial_Num,Stimulus,Angle,Mirror_Condition,SOA,Response_Key,ACC,RT,Flag,Early_Key,Repeated_Trial,Practice_Round,Timestamp,Condition,StimType
W,1,N,3,G,180,Normal,,j,1,1547.0,0,0,0,,2026-05-10T12:30:53.456Z,G_N,Letter
W,1,N,4,G,60,Normal,,j,1,946.0,0,0,0,,2026-05-10T12:30:56.129Z,G_N,Letter
W,1,N,5,J,240,Backward,,f,1,1125.0,0,0,0,,2026-05-10T12:30:58.992Z,J_N,Letter
W,1,N,6,R,180,Normal,,j,1,1239.0,0,0,0,,2026-05-10T12:31:01.948Z,R_N,Letter
W,1,N,7,G,180,Backward,,j,0,1742.0,0,0,0,,2026-05-10T12:31:05.408Z,G_N,Letter
W,1,N,11,G,300,Normal,,j,1,838.0,0,0,0,,2026-05-10T12:31:17.336Z,G_N,Letter
W,1,N,13,G,60,Backward,,f,1,944.0,0,0,0,,2026-05-10T12:31:22.379Z,G_N,Letter
W,1,N,14,R,0,Backward,,f,1,716.0,0,0,0,,2026-05-10T12:31:24.833Z,R_N,Letter
W,1,N,15,R,60,Backward,,f,1,687.0,0,0,0,,2026-05-10T12:31:27.251Z,R_N,Letter
W,1,N,16,R,240,Backward,,f,1,1442.0,0,0,0,,2026-05-10T12:31:30.412Z,R_N,Letter
W,1,N,17,G,240,Normal,,j,1,1805.0,0,0,0,,2026-05-10T12:31:33.940Z,G_N,Letter
W,1,N,18,J,120,Normal,,j,1,1694.0,0,0,0,,2026-05-10T12:31:37.355Z,J_N,Letter
W,1,N,19,R,120,Backward,,,0,,1,0,0,,2026-05-10T12:31:42.096Z,R_N,Letter
W,1,N,23,G,120,Backward,,j,0,1435.0,0,0,0,,2026-05-10T12:31:53.071Z,G_N,Letter
W,1,N,25,R,240,Normal,,j,1,839.0,0,0,0,,2026-05-10T12:31:58.971Z,R_N,Letter
W,1,N,26,R,180,Backward,,j,0,1214.0,0,0,0,,2026-05-10T12:32:01.922Z,R_N,Letter
W,1,N,28,R,60,Normal,,j,1,653.0,0,0,0,,2026-05-10T12:32:07.546Z,R_N,Letter
W,1,N,29,J,60,Normal,,j,1,556.0,0,0,0,,2026-05-10T12:32:09.831Z,J_N,Letter
W,1,N,36,J,120,Backward,,f,1,879.0,0,0,0,,2026-05-10T12:32:27.054Z,J_N,Letter
W,1,N,37,J,180,Normal,,j,1,2240.0,0,0,0,,2026-05-10T12:32:31.023Z,J_N,Letter
W,1,N,39,J,0,Normal,,j,1,724.0,0,0,0,,2026-05-10T12:32:37.203Z,J_N,Letter
W,1,N,42,G,0,Backward,,f,1,1175.0,0,0,0,,2026-05-10T12:32:46.599Z,G_N,Letter
W,1,N,46,J,0,Backward,,j,0,743.0,0,0,0,,2026-05-10T12:32:57.859Z,J_N,Letter
W,1,N,49,J,300,Normal,,j,1,882.0,0,0,0,,2026-05-10T12:33:06.754Z,J_N,Letter
W,1,N,54,R,0,Normal,,j,1,607.0,0,0,0,,2026-05-10T12:33:19.663Z,R_N,Letter
W,1,N,55,J,300,Backward,,f,1,887.0,0,0,0,,2026-05-10T12:33:22.277Z,J_N,Letter
W,1,N,56,G,120,Normal,,j,1,1469.0,0,0,0,,2026-05-10T12:33:25.464Z,G_N,Letter
W,1,N,58,J,60,Backward,,f,1,879.0,0,0,0,,2026-05-10T12:33:30.644Z,J_N,Letter
W,1,N,59,R,300,Backward,,f,1,784.0,0,0,0,,2026-05-10T12:33:33.152Z,R_N,Letter
W,1,N,61,G,240,Backward,,f,1,1644.0,0,0,0,,2026-05-10T12:33:38.966Z,G_N,Letter
W,1,N,62,G,0,Normal,,j,1,716.0,0,0,0,,2026-05-10T12:33:41.422Z,G_N,Letter
W,1,N,64,J,180,Backward,,f,1,1228.0,0,0,0,,2026-05-10T12:33:47.115Z,J_N,Letter
W,1,N,68,R,300,Normal,,j,1,670.0,0,0,0,,2026-05-10T12:33:56.730Z,R_N,Letter
W,1,N,70,R,120,Normal,,j,1,1153.0,0,0,0,,2026-05-10T12:34:02.172Z,R_N,Letter
W,1,N,71,J,240,Normal,,j,1,1455.0,0,0,0,,2026-05-10T12:34:05.349Z,J_N,Letter
W,1,N,72,G,300,Backward,,f,1,1185.0,0,0,0,,2026-05-10T12:34:08.258Z,G_N,Letter
W,1,I,4,G,240,Normal,,j,1,1609.0,0,0,0,,2026-05-10T12:34:58.558Z,G_I,Letter
W,1,I,6,J,0,Backward,,f,1,810.0,0,0,0,,2026-05-10T12:35:08.985Z,J_I,Letter
W,1,I,12,G,120,Backward,,f,1,920.0,0,0,0,,2026-05-10T12:35:41.994Z,G_I,Letter
W,1,I,13,R,240,Normal,,j,1,1371.0,0,0,0,,2026-05-10T12:35:47.512Z,R_I,Letter
W,1,I,17,J,120,Backward,,f,1,2044.0,0,0,0,,2026-05-10T12:36:09.407Z,J_I,Letter
W,1,I,18,G,0,Backward,,f,1,965.0,0,0,0,,2026-05-10T12:36:14.534Z,G_I,Letter
W,1,I,19,R,180,Backward,,j,0,1831.0,0,0,0,,2026-05-10T12:36:20.531Z,R_I,Letter
W,1,I,20,G,0,Normal,,j,1,609.0,0,0,0,,2026-05-10T12:36:25.295Z,G_I,Letter
W,1,I,24,G,60,Normal,,j,1,755.0,0,0,0,,2026-05-10T12:36:45.215Z,G_I,Letter
W,1,I,25,J,0,Normal,,j,1,649.0,0,0,0,,2026-05-10T12:36:50.015Z,J_I,Letter
W,1,I,27,G,240,Backward,,f,1,703.0,0,0,0,,2026-05-10T12:36:59.626Z,G_I,Letter
W,1,I,28,G,300,Normal,,j,1,1076.0,0,0,0,,2026-05-10T12:37:04.853Z,G_I,Letter
W,1,I,34,G,180,Backward,,j,0,2574.0,0,0,0,,2026-05-10T12:37:36.490Z,G_I,Letter
W,1,I,37,G,60,Backward,,f,1,1551.0,0,0,0,,2026-05-10T12:37:52.451Z,G_I,Letter
W,1,I,39,G,300,Backward,,f,1,1475.0,0,0,0,,2026-05-10T12:38:03.502Z,G_I,Letter
W,1,I,41,R,0,Normal,,j,1,554.0,0,0,0,,2026-05-10T12:38:13.110Z,R_I,Letter
W,1,I,42,R,120,Backward,,f,1,1028.0,0,0,0,,2026-05-10T12:38:18.300Z,R_I,Letter
W,1,I,44,J,180,Normal,,j,1,2419.0,0,0,0,,2026-05-10T12:38:29.926Z,J_I,Letter
W,1,I,46,J,60,Normal,,j,1,669.0,0,0,0,,2026-05-10T12:38:39.532Z,J_I,Letter
W,1,I,47,R,240,Backward,,f,1,1308.0,0,0,0,,2026-05-10T12:38:44.990Z,R_I,Letter
W,1,I,48,J,180,Backward,,f,1,1295.0,0,0,0,,2026-05-10T12:38:50.434Z,J_I,Letter
W,1,I,50,R,60,Normal,,j,1,633.0,0,0,0,,2026-05-10T12:39:00.129Z,R_I,Letter
W,1,I,51,R,180,Normal,,j,1,2159.0,0,0,0,,2026-05-10T12:39:06.442Z,R_I,Letter
W,1,I,52,R,300,Backward,,f,1,931.0,0,0,0,,2026-05-10T12:39:11.544Z,R_I,Letter
W,1,I,53,G,180,Normal,,j,1,2546.0,0,0,0,,2026-05-10T12:39:18.239Z,G_I,Letter
W,1,I,54,J,240,Backward,,f,1,1665.0,0,0,0,,2026-05-10T12:39:24.054Z,J_I,Letter
W,1,I,55,J,300,Normal,,j,1,729.0,0,0,0,,2026-05-10T12:39:28.943Z,J_I,Letter
W,1,I,56,R,60,Backward,,f,1,1584.0,0,0,0,,2026-05-10T12:39:34.675Z,R_I,Letter
W,1,I,57,G,120,Normal,,j,1,1546.0,0,0,0,,2026-05-10T12:39:40.370Z,G_I,Letter
W,1,I,58,R,120,Normal,,j,1,831.0,0,0,0,,2026-05-10T12:39:45.348Z,R_I,Letter
W,1,I,59,J,300,Backward,,f,1,1037.0,0,0,0,,2026-05-10T12:39:50.523Z,J_I,Letter
W,1,I,60,R,0,Backward,,f,1,894.0,0,0,0,,2026-05-10T12:39:55.550Z,R_I,Letter
W,1,I,63,R,300,Normal,,j,1,763.0,0,0,0,,2026-05-10T12:40:10.699Z,R_I,Letter
W,1,I,70,J,60,Backward,,j,0,1217.0,0,0,0,,2026-05-10T12:40:46.572Z,J_I,Letter
W,1,I,71,J,240,Normal,,j,1,1073.0,0,0,0,,2026-05-10T12:40:51.794Z,J_I,Letter
W,1,I,72,J,120,Normal,,j,1,1005.0,0,0,0,,2026-05-10T12:40:56.961Z,J_I,Letter
W,1,O,3,R,0,Normal,,j,1,629.0,0,0,0,,2026-05-10T12:58:36.693Z,R_O,Letter
W,1,O,6,G,0,Normal,,j,1,980.0,0,0,0,,2026-05-10T12:58:45.643Z,G_O,Letter
W,1,O,7,R,0,Backward,,f,1,1013.0,0,0,0,,2026-05-10T12:58:48.781Z,R_O,Letter
W,1,O,9,J,240,Backward,,f,1,1050.0,0,0,0,,2026-05-10T12:58:56.517Z,J_O,Letter
W,1,O,10,G,180,Backward,,f,1,2440.0,0,0,0,,2026-05-10T12:59:01.094Z,G_O,Letter
W,1,O,11,G,60,Backward,,f,1,892.0,0,0,0,,2026-05-10T12:59:04.115Z,G_O,Letter
W,1,O,12,J,120,Backward,,f,1,1439.0,0,0,0,,2026-05-10T12:59:07.690Z,J_O,Letter
W,1,O,14,J,180,Normal,,j,1,2381.0,0,0,0,,2026-05-10T12:59:15.086Z,J_O,Letter
W,1,O,15,J,300,Normal,,j,1,1102.0,0,0,0,,2026-05-10T12:59:18.314Z,J_O,Letter
W,1,O,16,G,0,Backward,,f,1,1223.0,0,0,0,,2026-05-10T12:59:21.658Z,G_O,Letter
W,1,O,17,G,120,Normal,,j,1,1027.0,0,0,0,,2026-05-10T12:59:24.821Z,G_O,Letter
W,1,O,19,G,120,Backward,,f,1,1345.0,0,0,0,,2026-05-10T12:59:31.807Z,G_O,Letter
W,1,O,23,R,240,Normal,,j,1,703.0,0,0,0,,2026-05-10T12:59:44.606Z,R_O,Letter
W,1,O,24,G,240,Backward,,f,1,1006.0,0,0,0,,2026-05-10T12:59:47.742Z,G_O,Letter
W,1,O,28,R,300,Normal,,j,1,707.0,0,0,0,,2026-05-10T12:59:59.724Z,R_O,Letter
W,1,O,29,R,240,Backward,,f,1,1020.0,0,0,0,,2026-05-10T13:00:02.890Z,R_O,Letter
W,1,O,30,J,60,Backward,,f,1,851.0,0,0,0,,2026-05-10T13:00:05.879Z,J_O,Letter
W,1,O,32,J,180,Backward,,f,1,1755.0,0,0,0,,2026-05-10T13:00:13.050Z,J_O,Letter
W,1,O,33,J,300,Backward,,f,1,795.0,0,0,0,,2026-05-10T13:00:15.989Z,J_O,Letter
W,1,O,35,J,60,Normal,,j,1,808.0,0,0,0,,2026-05-10T13:00:21.955Z,J_O,Letter
W,1,O,39,J,240,Normal,,j,1,1841.0,0,0,0,,2026-05-10T13:00:34.570Z,J_O,Letter
W,1,O,40,G,240,Normal,,j,1,827.0,0,0,0,,2026-05-10T13:00:37.521Z,G_O,Letter
W,1,O,42,R,180,Normal,,j,1,1615.0,0,0,0,,2026-05-10T13:00:44.395Z,R_O,Letter
W,1,O,43,G,60,Normal,,j,1,693.0,0,0,0,,2026-05-10T13:00:47.218Z,G_O,Letter
W,1,O,45,R,300,Backward,,f,1,993.0,0,0,0,,2026-05-10T13:00:53.245Z,R_O,Letter
W,1,O,49,G,300,Backward,,f,1,776.0,0,0,0,,2026-05-10T13:01:04.881Z,G_O,Letter
W,1,O,51,G,180,Normal,,j,1,1322.0,0,0,0,,2026-05-10T13:01:11.274Z,G_O,Letter
W,1,O,52,J,120,Normal,,j,1,774.0,0,0,0,,2026-05-10T13:01:14.182Z,J_O,Letter
W,1,O,53,R,180,Backward,,j,0,2726.0,0,0,0,,2026-05-10T13:01:19.035Z,R_O,Letter
W,1,O,56,R,120,Normal,,j,1,810.0,0,0,0,,2026-05-10T13:01:28.420Z,R_O,Letter
W,1,O,62,J,0,Backward,,f,1,826.0,0,0,0,,2026-05-10T13:01:45.474Z,J_O,Letter
W,1,O,63,R,60,Backward,,f,1,763.0,0,0,0,,2026-05-10T13:01:48.373Z,R_O,Letter
W,1,O,66,R,120,Backward,,f,1,1062.0,0,0,0,,2026-05-10T13:01:57.752Z,R_O,Letter
W,1,O,67,R,60,Normal,,j,1,677.0,0,0,0,,2026-05-10T13:02:00.557Z,R_O,Letter
W,1,O,70,J,0,Normal,,j,1,732.0,0,0,0,,2026-05-10T13:02:11.086Z,J_O,Letter
W,1,O,72,G,300,Normal,,j,1,721.0,0,0,0,,2026-05-10T13:02:18.244Z,G_O,Letter
W,1,B,2,J,300,Backward,700.0,f,1,1080.0,0,0,0,,2026-05-13T13:47:40.221Z,J_B,Letter
W,1,B,3,J,0,Normal,1000.0,j,1,721.0,0,0,0,,2026-05-13T13:47:46.108Z,J_B,Letter
W,1,B,4,R,0,Backward,700.0,f,1,939.0,0,0,0,,2026-05-13T13:47:51.899Z,R_B,Letter
W,1,B,5,G,60,Backward,1000.0,f,1,490.0,0,0,0,,2026-05-13T13:47:57.527Z,G_B,Letter
W,1,B,6,G,240,Normal,400.0,j,1,751.0,0,0,0,,2026-05-13T13:48:02.819Z,G_B,Letter
W,1,B,7,R,180,Backward,100.0,j,0,1108.0,0,0,0,,2026-05-13T13:48:08.188Z,R_B,Letter
W,1,B,10,G,0,Backward,400.0,f,1,586.0,0,0,0,,2026-05-13T13:48:24.473Z,G_B,Letter
W,1,B,13,G,300,Normal,700.0,j,1,1307.0,0,0,0,,2026-05-13T13:48:42.590Z,G_B,Letter
W,1,B,14,J,120,Backward,1000.0,f,1,1378.0,0,0,0,,2026-05-13T13:48:49.114Z,J_B,Letter
W,1,B,16,R,300,Backward,700.0,f,1,868.0,0,0,0,,2026-05-13T13:49:00.396Z,R_B,Letter
W,1,B,21,G,240,Normal,100.0,j,1,1019.0,0,0,0,,2026-05-13T13:49:29.101Z,G_B,Letter
W,1,B,22,R,300,Normal,100.0,j,1,760.0,0,0,0,,2026-05-13T13:49:34.122Z,R_B,Letter
W,1,B,24,R,0,Backward,100.0,f,1,719.0,0,0,0,,2026-05-13T13:49:44.177Z,R_B,Letter
W,1,B,25,G,300,Normal,1000.0,j,1,507.0,0,0,0,,2026-05-13T13:49:49.837Z,G_B,Letter
W,1,B,28,J,60,Backward,700.0,f,1,825.0,0,0,0,,2026-05-13T13:50:07.674Z,J_B,Letter
W,1,B,30,G,240,Backward,1000.0,f,1,845.0,0,0,0,,2026-05-13T13:50:20.323Z,G_B,Letter
W,1,B,31,G,300,Normal,100.0,j,1,685.0,0,0,0,,2026-05-13T13:50:25.247Z,G_B,Letter
W,1,B,32,J,180,Backward,100.0,f,1,1933.0,0,0,0,,2026-05-13T13:50:31.440Z,J_B,Letter
W,1,B,33,J,0,Normal,100.0,j,1,560.0,0,0,0,,2026-05-13T13:50:36.253Z,J_B,Letter
W,1,B,34,G,300,Backward,400.0,f,1,731.0,0,0,0,,2026-05-13T13:50:41.513Z,G_B,Letter
W,1,B,35,R,0,Normal,400.0,j,1,616.0,0,0,0,,2026-05-13T13:50:46.673Z,R_B,Letter
W,1,B,36,G,60,Normal,700.0,j,1,541.0,0,0,0,,2026-05-13T13:50:52.089Z,G_B,Letter
W,1,B,37,J,60,Backward,400.0,f,1,646.0,0,0,0,,2026-05-13T13:50:57.283Z,J_B,Letter
W,1,B,38,J,60,Backward,1000.0,f,1,660.0,0,0,0,,2026-05-13T13:51:03.113Z,J_B,Letter
W,1,B,39,R,240,Normal,1000.0,j,1,691.0,0,0,0,,2026-05-13T13:51:08.970Z,R_B,Letter
W,1,B,40,J,0,Normal,700.0,j,1,795.0,0,0,0,,2026-05-13T13:51:14.611Z,J_B,Letter
W,1,B,41,J,120,Normal,1000.0,j,1,639.0,0,0,0,,2026-05-13T13:51:20.410Z,J_B,Letter
W,1,B,42,J,0,Backward,400.0,f,1,691.0,0,0,0,,2026-05-13T13:51:25.674Z,J_B,Letter
W,1,B,43,J,180,Normal,700.0,j,1,1741.0,0,0,0,,2026-05-13T13:51:32.251Z,J_B,Letter
W,1,B,44,J,240,Backward,100.0,f,1,1062.0,0,0,0,,2026-05-13T13:51:37.558Z,J_B,Letter
W,1,B,45,R,120,Backward,100.0,f,1,1197.0,0,0,0,,2026-05-13T13:51:43.010Z,R_B,Letter
W,1,B,50,G,60,Backward,400.0,f,1,969.0,0,0,0,,2026-05-13T13:52:11.726Z,G_B,Letter
W,1,B,54,R,120,Backward,1000.0,f,1,1289.0,0,0,0,,2026-05-13T13:52:33.702Z,R_B,Letter
W,1,B,55,G,300,Backward,700.0,f,1,677.0,0,0,0,,2026-05-13T13:52:39.234Z,G_B,Letter
W,1,B,56,J,240,Normal,400.0,j,1,1165.0,0,0,0,,2026-05-13T13:52:44.955Z,J_B,Letter
W,1,B,57,J,300,Backward,400.0,f,1,688.0,0,0,0,,2026-05-13T13:52:50.203Z,J_B,Letter
W,1,B,59,G,180,Backward,1000.0,f,1,922.0,0,0,0,,2026-05-13T13:53:02.053Z,G_B,Letter
W,1,B,60,G,60,Normal,400.0,j,1,814.0,0,0,0,,2026-05-13T13:53:07.417Z,G_B,Letter
W,1,B,61,R,240,Backward,1000.0,f,1,1311.0,0,0,0,,2026-05-13T13:53:13.874Z,R_B,Letter
W,1,B,65,R,180,Normal,100.0,j,1,1992.0,0,0,0,,2026-05-13T13:53:36.303Z,R_B,Letter
W,1,B,66,G,0,Backward,1000.0,f,1,433.0,0,0,0,,2026-05-13T13:53:41.898Z,G_B,Letter
W,1,B,67,R,60,Backward,100.0,f,1,786.0,0,0,0,,2026-05-13T13:53:46.922Z,R_B,Letter
W,1,B,68,R,300,Backward,1000.0,f,1,469.0,0,0,0,,2026-05-13T13:53:52.530Z,R_B,Letter
W,1,B,71,R,120,Normal,400.0,j,1,1462.0,0,0,0,,2026-05-13T13:54:09.452Z,R_B,Letter
W,1,B,72,G,0,Normal,400.0,j,1,903.0,0,0,0,,2026-05-13T13:54:14.893Z,G_B,Letter
W,1,B,74,R,60,Normal,700.0,j,1,535.0,0,0,0,,2026-05-13T13:54:25.978Z,R_B,Letter
W,1,B,77,R,0,Normal,1000.0,j,1,456.0,0,0,0,,2026-05-13T13:54:43.145Z,R_B,Letter
W,1,B,80,G,60,Backward,100.0,f,1,683.0,0,0,0,,2026-05-13T13:54:59.509Z,G_B,Letter
W,1,B,83,J,240,Backward,400.0,f,1,727.0,0,0,0,,2026-05-13T13:55:16.309Z,J_B,Letter
W,1,B,84,G,180,Backward,700.0,f,1,1236.0,0,0,0,,2026-05-13T13:55:22.409Z,G_B,Letter
W,1,B,85,G,180,Backward,100.0,f,1,916.0,0,0,0,,2026-05-13T13:55:27.563Z,G_B,Letter
W,1,B,87,G,300,Backward,100.0,f,1,1107.0,0,0,0,,2026-05-13T13:55:38.547Z,G_B,Letter
W,1,B,90,G,60,Normal,1000.0,j,1,810.0,0,0,0,,2026-05-13T13:55:56.508Z,G_B,Letter
W,1,B,93,J,120,Backward,700.0,f,1,1335.0,0,0,0,,2026-05-13T13:56:13.933Z,J_B,Letter
W,1,B,94,J,120,Backward,100.0,f,1,833.0,0,0,0,,2026-05-13T13:56:19.031Z,J_B,Letter
W,1,B,95,J,240,Normal,700.0,j,1,1104.0,0,0,0,,2026-05-13T13:56:24.998Z,J_B,Letter
W,1,B,97,J,240,Backward,700.0,f,1,1302.0,0,0,0,,2026-05-13T13:56:36.858Z,J_B,Letter
W,1,B,103,G,240,Backward,400.0,f,1,759.0,0,0,0,,2026-05-13T13:57:12.755Z,G_B,Letter
W,1,B,107,R,60,Backward,400.0,f,1,896.0,0,0,0,,2026-05-13T13:57:34.677Z,R_B,Letter
W,1,B,108,G,300,Backward,1000.0,f,1,590.0,0,0,0,,2026-05-13T13:57:40.401Z,G_B,Letter
W,1,B,110,R,60,Normal,400.0,j,1,757.0,0,0,0,,2026-05-13T13:57:50.601Z,R_B,Letter
W,1,B,112,R,0,Backward,1000.0,f,1,435.0,0,0,0,,2026-05-13T13:58:01.899Z,R_B,Letter
W,1,B,113,G,240,Backward,100.0,f,1,861.0,0,0,0,,2026-05-13T13:58:07.033Z,G_B,Letter
W,1,B,114,R,240,Backward,400.0,f,1,905.0,0,0,0,,2026-05-13T13:58:12.482Z,R_B,Letter
W,1,B,115,G,120,Normal,1000.0,j,1,1494.0,0,0,0,,2026-05-13T13:58:19.122Z,G_B,Letter
W,1,B,116,G,0,Normal,100.0,j,1,700.0,0,0,0,,2026-05-13T13:58:24.062Z,G_B,Letter
W,1,B,118,G,240,Normal,1000.0,j,1,805.0,0,0,0,,2026-05-13T13:58:35.474Z,G_B,Letter
W,1,B,120,J,120,Backward,400.0,f,1,878.0,0,0,0,,2026-05-13T13:58:46.381Z,J_B,Letter
W,1,B,121,G,0,Normal,700.0,j,1,685.0,0,0,0,,2026-05-13T13:58:51.926Z,G_B,Letter
W,1,B,123,G,0,Backward,100.0,f,1,717.0,0,0,0,,2026-05-13T13:59:03.713Z,G_B,Letter
W,1,B,124,G,240,Normal,700.0,j,1,927.0,0,0,0,,2026-05-13T13:59:09.491Z,G_B,Letter
W,1,B,126,R,120,Normal,100.0,j,1,917.0,0,0,0,,2026-05-13T13:59:19.990Z,R_B,Letter
W,1,B,128,R,240,Normal,700.0,j,1,751.0,0,0,0,,2026-05-13T13:59:30.994Z,R_B,Letter
W,1,B,130,G,0,Backward,700.0,f,1,685.0,0,0,0,,2026-05-13T13:59:42.165Z,G_B,Letter
W,1,B,136,J,60,Normal,400.0,j,1,992.0,0,0,0,,2026-05-13T14:00:15.173Z,J_B,Letter
W,1,B,137,J,180,Backward,400.0,f,1,1243.0,0,0,0,,2026-05-13T14:00:20.974Z,J_B,Letter
W,1,B,139,G,240,Backward,700.0,f,1,1143.0,0,0,0,,2026-05-13T14:00:32.302Z,G_B,Letter
W,1,B,140,J,60,Normal,1000.0,j,1,1031.0,0,0,0,,2026-05-13T14:00:38.482Z,J_B,Letter
W,1,B,141,G,180,Normal,100.0,j,1,1078.0,0,0,0,,2026-05-13T14:00:43.790Z,G_B,Letter
W,1,B,145,R,60,Normal,100.0,j,1,683.0,0,0,0,,2026-05-13T14:01:05.467Z,R_B,Letter
W,1,B,149,R,60,Backward,1000.0,f,1,693.0,0,0,0,,2026-05-13T14:01:26.005Z,R_B,Letter
W,1,B,155,R,300,Backward,100.0,f,1,963.0,0,0,0,,2026-05-13T14:01:58.222Z,R_B,Letter
W,1,B,156,R,120,Normal,1000.0,j,1,795.0,0,0,0,,2026-05-13T14:02:04.157Z,R_B,Letter
W,1,B,162,G,60,Backward,700.0,f,1,614.0,0,0,0,,2026-05-13T14:02:36.061Z,G_B,Letter
W,1,B,164,R,120,Backward,700.0,j,0,564.0,0,0,0,,2026-05-13T14:02:47.122Z,R_B,Letter
W,1,B,165,R,120,Normal,700.0,j,1,1095.0,0,0,0,,2026-05-13T14:02:53.069Z,R_B,Letter
W,1,B,167,G,120,Backward,100.0,f,1,682.0,0,0,0,,2026-05-13T14:03:04.345Z,G_B,Letter
W,1,B,169,G,0,Normal,1000.0,j,1,364.0,0,0,0,,2026-05-13T14:03:15.466Z,G_B,Letter
W,1,B,175,R,300,Normal,700.0,j,1,486.0,0,0,0,,2026-05-13T14:03:48.801Z,R_B,Letter
W,1,B,177,G,300,Normal,400.0,j,1,674.0,0,0,0,,2026-05-13T14:03:59.073Z,G_B,Letter
W,1,B,183,R,180,Normal,1000.0,j,1,1266.0,0,0,0,,2026-05-13T14:04:33.817Z,R_B,Letter
W,1,B,184,R,60,Normal,1000.0,j,1,427.0,0,0,0,,2026-05-13T14:04:39.401Z,R_B,Letter
W,1,B,185,R,0,Normal,100.0,j,1,1294.0,0,0,0,,2026-05-13T14:04:44.949Z,R_B,Letter
W,1,B,186,J,60,Backward,100.0,f,1,630.0,0,0,0,,2026-05-13T14:04:49.837Z,J_B,Letter
W,1,B,187,G,180,Backward,400.0,f,1,1097.0,0,0,0,,2026-05-13T14:04:55.485Z,G_B,Letter
W,1,B,189,J,300,Normal,400.0,j,1,830.0,0,0,0,,2026-05-13T14:05:06.026Z,J_B,Letter
W,1,B,190,R,180,Normal,700.0,j,1,1380.0,0,0,0,,2026-05-13T14:05:12.269Z,R_B,Letter
W,1,B,191,J,120,Normal,400.0,j,1,885.0,0,0,0,,2026-05-13T14:05:17.697Z,J_B,Letter
W,1,B,192,R,300,Normal,400.0,j,1,527.0,0,0,0,,2026-05-13T14:05:22.781Z,R_B,Letter
W,1,B,193,J,180,Backward,1000.0,f,1,2050.0,0,0,0,,2026-05-13T14:05:29.974Z,J_B,Letter
W,1,B,195,G,120,Normal,700.0,j,1,950.0,0,0,0,,2026-05-13T14:05:40.584Z,G_B,Letter
W,1,B,196,J,240,Normal,1000.0,j,1,761.0,0,0,0,,2026-05-13T14:05:46.497Z,J_B,Letter
W,1,B,198,G,120,Backward,1000.0,f,1,837.0,0,0,0,,2026-05-13T14:05:57.444Z,G_B,Letter
W,1,B,199,J,0,Backward,700.0,f,1,787.0,0,0,0,,2026-05-13T14:06:03.069Z,J_B,Letter
W,1,B,201,J,240,Backward,1000.0,f,1,1163.0,0,0,0,,2026-05-13T14:06:15.237Z,J_B,Letter
W,1,B,202,G,120,Backward,400.0,f,1,748.0,0,0,0,,2026-05-13T14:06:20.539Z,G_B,Letter
W,1,B,204,G,180,Normal,1000.0,j,1,864.0,0,0,0,,2026-05-13T14:06:32.157Z,G_B,Letter
W,1,B,206,J,180,Backward,700.0,f,1,1000.0,0,0,0,,2026-05-13T14:06:43.290Z,J_B,Letter
W,1,B,207,G,120,Normal,100.0,f,0,2888.0,0,0,0,,2026-05-13T14:06:50.441Z,G_B,Letter
W,1,B,211,R,300,Backward,400.0,f,1,638.0,0,0,0,,2026-05-13T14:07:12.613Z,R_B,Letter
W,1,B,216,J,300,Normal,1000.0,j,1,465.0,0,0,0,,2026-05-13T14:07:38.970Z,J_B,Letter
W,1,B,217,R,240,Normal,400.0,j,1,637.0,0,0,0,,2026-05-13T14:07:44.161Z,R_B,Letter
W,1,B,218,J,0,Backward,100.0,f,1,680.0,0,0,0,,2026-05-13T14:07:49.095Z,J_B,Letter
W,1,B,221,R,0,Normal,700.0,j,1,651.0,0,0,0,,2026-05-13T14:08:05.567Z,R_B,Letter
W,1,B,223,J,300,Normal,700.0,j,1,598.0,0,0,0,,2026-05-13T14:08:16.185Z,J_B,Letter
W,1,B,224,J,60,Normal,100.0,j,1,747.0,0,0,0,,2026-05-13T14:08:21.185Z,J_B,Letter
W,1,B,226,R,0,Backward,400.0,f,1,574.0,0,0,0,,2026-05-13T14:08:31.378Z,R_B,Letter
W,1,B,230,G,120,Normal,400.0,j,1,552.0,0,0,0,,2026-05-13T14:08:56.009Z,G_B,Letter
W,1,B,232,G,180,Normal,400.0,j,1,713.0,0,0,0,,2026-05-13T14:09:06.782Z,G_B,Letter
W,1,B,235,R,240,Backward,100.0,f,1,1138.0,0,0,0,,2026-05-13T14:09:22.497Z,R_B,Letter
W,1,B,240,R,240,Backward,700.0,f,1,787.0,0,0,0,,2026-05-13T14:09:50.937Z,R_B,Letter
W,1,B,241,J,300,Normal,100.0,j,1,804.0,0,0,0,,2026-05-13T14:09:55.981Z,J_B,Letter
W,1,B,242,R,180,Backward,700.0,f,1,1042.0,0,0,0,,2026-05-13T14:10:01.869Z,R_B,Letter
W,1,B,243,G,180,Normal,700.0,j,1,1387.0,0,0,0,,2026-05-13T14:10:08.101Z,G_B,Letter
W,1,B,247,J,120,Normal,100.0,j,1,847.0,0,0,0,,2026-05-13T14:10:29.892Z,J_B,Letter
W,1,B,251,J,180,Normal,1000.0,j,1,907.0,0,0,0,,2026-05-13T14:10:52.517Z,J_B,Letter
W,1,B,252,J,180,Normal,400.0,j,1,1344.0,0,0,0,,2026-05-13T14:10:58.402Z,J_B,Letter
W,1,B,253,J,240,Normal,100.0,j,1,920.0,0,0,0,,2026-05-13T14:11:03.578Z,J_B,Letter
W,1,B,256,G,120,Backward,700.0,f,1,1014.0,0,0,0,,2026-05-13T14:11:19.116Z,G_B,Letter
W,1,B,257,J,0,Normal,400.0,j,1,589.0,0,0,0,,2026-05-13T14:11:24.271Z,J_B,Letter
W,1,B,258,G,60,Normal,100.0,j,1,793.0,0,0,0,,2026-05-13T14:11:29.338Z,G_B,Letter
W,1,B,260,R,180,Normal,400.0,j,1,1626.0,0,0,0,,2026-05-13T14:11:40.421Z,R_B,Letter
W,1,B,262,R,180,Backward,1000.0,f,1,1140.0,0,0,0,,2026-05-13T14:11:52.226Z,R_B,Letter
W,1,B,271,J,0,Backward,1000.0,f,1,444.0,0,0,0,,2026-05-13T14:12:43.273Z,J_B,Letter
W,1,B,273,J,60,Normal,700.0,j,1,786.0,0,0,0,,2026-05-13T14:12:54.635Z,J_B,Letter
W,1,B,274,R,240,Normal,100.0,j,1,857.0,0,0,0,,2026-05-13T14:12:59.740Z,R_B,Letter
W,1,B,275,R,120,Backward,400.0,f,1,1111.0,0,0,0,,2026-05-13T14:13:05.397Z,R_B,Letter
W,1,B,282,J,300,Backward,1000.0,f,1,1289.0,0,0,0,,2026-05-13T14:13:47.242Z,J_B,Letter
W,1,B,283,J,120,Normal,700.0,j,1,628.0,0,0,0,,2026-05-13T14:13:52.723Z,J_B,Letter
W,1,B,284,R,60,Backward,700.0,f,1,872.0,0,0,0,,2026-05-13T14:13:58.446Z,R_B,Letter
W,1,B,285,J,300,Backward,100.0,f,1,1008.0,0,0,0,,2026-05-13T14:14:03.702Z,J_B,Letter
W,1,C,17,G,180,Normal,,j,1,325.0,0,0,0,,2026-05-14T11:35:53.313Z,G_C,Letter
W,1,C,20,J,0,Backward,,f,1,130.0,1,0,0,,2026-05-12T10:45:05.887Z,J_C,Letter
W,1,C,16,R,120,Backward,,f,1,198.0,0,0,0,,2026-05-12T10:44:48.453Z,R_C,Letter
W,1,C,46,G,60,Backward,,f,1,237.0,0,0,0,,2026-05-14T11:38:00.384Z,G_C,Letter
W,1,C,31,G,240,Normal,,j,1,156.0,0,0,0,,2026-05-12T10:45:53.296Z,G_C,Letter
W,1,C,73,G,300,Normal,,j,1,255.0,0,0,0,,2026-05-14T11:39:57.259Z,G_C,Letter
W,1,C,69,J,300,Normal,,j,1,199.0,0,0,0,,2026-05-12T10:48:40.602Z,J_C,Letter
W,1,C,56,J,180,Backward,,f,1,209.0,0,0,0,,2026-05-12T10:47:43.115Z,J_C,Letter
W,1,C,52,J,240,Backward,,f,1,792.0,0,0,0,,2026-05-12T10:47:25.629Z,J_C,Letter
W,1,C,18,G,300,Normal,,j,0,319.30000000074506,1,1,1,,2026-05-14T11:35:57.364Z,G_C,Letter
W,1,C,46,J,0,Normal,,j,1,207.0,0,0,0,,2026-05-12T10:46:59.665Z,J_C,Letter
W,1,C,57,J,60,Normal,,j,1,230.0,0,0,0,,2026-05-12T10:47:47.486Z,J_C,Letter
W,1,C,44,G,0,Backward,,f,1,252.0,0,0,0,,2026-05-14T11:37:51.642Z,G_C,Letter
W,1,C,49,J,120,Normal,,j,1,159.0,0,0,0,,2026-05-14T11:38:13.283Z,J_C,Letter
W,1,C,67,G,0,Backward,,f,1,190.0,0,0,0,,2026-05-12T10:48:31.942Z,G_C,Letter
W,1,C,27,G,180,Normal,,j,1,321.0,0,0,0,,2026-05-12T10:45:35.711Z,G_C,Letter
W,1,C,55,G,240,Normal,,j,1,126.0,1,0,0,,2026-05-14T11:38:39.536Z,G_C,Letter
W,1,C,52,J,0,Normal,,j,1,586.0,0,0,0,,2026-05-14T11:38:26.630Z,J_C,Letter
W,1,C,76,J,120,Backward,,f,1,225.0,0,0,0,,2026-05-12T10:49:09.712Z,J_C,Letter
W,1,C,23,R,60,Backward,,f,1,284.0,0,0,0,,2026-05-12T10:45:18.857Z,R_C,Letter
W,1,C,12,G,300,Backward,,f,1,110.0,1,0,0,,2026-05-12T10:44:31.217Z,G_C,Letter
W,1,C,61,R,240,Normal,,j,1,208.0,0,0,0,,2026-05-12T10:48:04.916Z,R_C,Letter
W,1,C,68,G,120,Backward,,f,1,166.0,0,0,0,,2026-05-12T10:48:36.254Z,G_C,Letter
W,1,C,28,R,180,Backward,,f,1,284.0,0,0,0,,2026-05-12T10:45:40.139Z,R_C,Letter
W,1,C,38,J,240,Normal,,j,1,311.0,0,0,0,,2026-05-14T11:37:25.491Z,J_C,Letter
W,1,C,5,J,60,Backward,,f,1,221.0,0,0,0,,2026-05-12T10:44:00.492Z,J_C,Letter
W,1,C,33,R,60,Normal,,j,1,256.0,0,0,0,,2026-05-12T10:46:02.430Z,R_C,Letter
W,1,C,43,J,180,Backward,,f,1,395.0,0,0,0,,2026-05-14T11:37:47.243Z,J_C,Letter
W,1,C,66,G,0,Normal,,j,1,204.0,0,0,0,,2026-05-12T10:48:27.594Z,G_C,Letter
W,1,C,17,R,120,Normal,,j,1,279.0,0,0,0,,2026-05-12T10:44:52.868Z,R_C,Letter
W,1,C,31,R,180,Normal,,j,1,209.0,0,0,0,,2026-05-14T11:36:55.007Z,R_C,Letter
W,1,C,70,J,240,Backward,,f,1,263.0,0,0,0,,2026-05-14T11:39:43.977Z,J_C,Letter
W,1,C,2,G,120,Backward,,f,1,326.0,0,0,0,,2026-05-14T11:34:48.149Z,G_C,Letter
W,1,C,29,G,300,Normal,,j,1,246.0,0,0,0,,2026-05-12T10:45:44.531Z,G_C,Letter
W,1,C,41,J,300,Backward,,f,1,212.0,0,0,0,,2026-05-12T10:46:38.016Z,J_C,Letter
W,1,C,26,R,60,Backward,,f,1,244.0,0,0,0,,2026-05-14T11:36:32.511Z,R_C,Letter
W,1,C,30,J,180,Normal,,j,1,1028.0,0,0,0,,2026-05-14T11:36:50.667Z,J_C,Letter
W,1,C,40,G,180,Backward,,f,1,216.0,0,0,0,,2026-05-12T10:46:33.654Z,G_C,Letter
W,1,C,5,J,120,Backward,,f,1,315.0,0,0,0,,2026-05-14T11:35:01.439Z,J_C,Letter
L,1,N,1,J,180,Backward,,f,1,1230.0,0,0,0,,2026-05-12T10:03:18.803Z,J_N,Letter
L,1,N,3,J,240,Backward,,f,1,1434.0,0,0,0,,2026-05-12T10:03:24.573Z,J_N,Letter
L,1,N,8,R,60,Normal,,j,1,636.0,0,0,0,,2026-05-12T10:03:37.260Z,R_N,Letter
L,1,N,9,R,0,Backward,,f,1,634.0,0,0,0,,2026-05-12T10:03:39.627Z,R_N,Letter
L,1,N,10,R,60,Backward,,f,1,617.0,0,0,0,,2026-05-12T10:03:41.976Z,R_N,Letter
L,1,N,13,J,300,Backward,,f,1,1555.0,0,0,0,,2026-05-12T10:03:50.797Z,J_N,Letter
L,1,N,14,R,240,Normal,,j,1,1145.0,0,0,0,,2026-05-12T10:03:53.671Z,R_N,Letter
L,1,N,15,G,0,Backward,,f,1,664.0,0,0,0,,2026-05-12T10:03:56.055Z,G_N,Letter
L,1,N,17,J,120,Normal,,j,1,651.0,0,0,0,,2026-05-12T10:04:00.625Z,J_N,Letter
L,1,N,20,G,180,Backward,,f,1,469.0,0,0,0,,2026-05-12T10:04:07.295Z,G_N,Letter
L,1,N,21,J,60,Backward,,f,1,865.0,0,0,0,,2026-05-12T10:04:09.888Z,J_N,Letter
L,1,N,23,J,300,Normal,,j,1,580.0,0,0,0,,2026-05-12T10:04:14.354Z,J_N,Letter
L,1,N,25,G,240,Normal,,f,0,519.0,0,0,0,,2026-05-12T10:04:19.060Z,G_N,Letter
L,1,N,27,G,60,Backward,,f,1,1360.0,0,0,0,,2026-05-12T10:04:24.785Z,G_N,Letter
L,1,N,28,G,240,Backward,,f,1,1599.0,0,0,0,,2026-05-12T10:04:28.107Z,G_N,Letter
L,1,N,34,R,300,Backward,,f,1,632.0,0,0,0,,2026-05-12T10:04:44.423Z,R_N,Letter
L,1,N,35,J,0,Normal,,j,1,608.0,0,0,0,,2026-05-12T10:04:46.767Z,J_N,Letter
L,1,N,36,G,60,Normal,,j,1,1103.0,0,0,0,,2026-05-12T10:04:49.593Z,G_N,Letter
L,1,N,38,R,180,Normal,,f,0,746.0,0,0,0,,2026-05-12T10:04:54.436Z,R_N,Letter
L,1,N,39,R,120,Backward,,f,1,1098.0,0,0,0,,2026-05-12T10:04:57.271Z,R_N,Letter
L,1,N,40,G,180,Normal,,j,1,1763.0,0,0,0,,2026-05-12T10:05:00.754Z,G_N,Letter
L,1,N,42,G,300,Backward,,f,1,1688.0,0,0,0,,2026-05-12T10:05:07.479Z,G_N,Letter
L,1,N,44,J,120,Backward,,j,0,1372.0,0,0,0,,2026-05-12T10:05:12.979Z,J_N,Letter
L,1,N,45,R,0,Normal,,j,1,1223.0,0,0,0,,2026-05-12T10:05:15.930Z,R_N,Letter
L,1,N,46,G,0,Normal,,j,1,699.0,0,0,0,,2026-05-12T10:05:18.354Z,G_N,Letter
L,1,N,48,R,300,Normal,,j,1,601.0,0,0,0,,2026-05-12T10:05:23.323Z,R_N,Letter
L,1,N,49,J,0,Backward,,f,1,2185.0,0,0,0,,2026-05-12T10:05:27.244Z,J_N,Letter
L,1,N,51,R,120,Normal,,j,1,770.0,0,0,0,,2026-05-12T10:05:32.026Z,R_N,Letter
L,1,N,52,R,180,Backward,,f,1,1376.0,0,0,0,,2026-05-12T10:05:35.134Z,R_N,Letter
L,1,N,53,G,120,Normal,,j,1,893.0,0,0,0,,2026-05-12T10:05:37.751Z,G_N,Letter
L,1,N,58,J,60,Normal,,j,1,1108.0,0,0,0,,2026-05-12T10:05:50.884Z,J_N,Letter
L,1,N,59,J,180,Normal,,j,1,947.0,0,0,0,,2026-05-12T10:05:53.554Z,J_N,Letter
L,1,N,62,R,240,Backward,,f,1,707.0,0,0,0,,2026-05-12T10:06:00.863Z,R_N,Letter
L,1,N,67,G,300,Normal,,j,1,821.0,0,0,0,,2026-05-12T10:06:13.727Z,G_N,Letter
L,1,N,71,J,240,Normal,,j,1,697.0,0,0,0,,2026-05-12T10:06:24.554Z,J_N,Letter
L,1,N,72,G,120,Backward,,f,1,1786.0,0,0,0,,2026-05-12T10:06:28.075Z,G_N,Letter
L,1,I,3,G,180,Normal,,j,1,1171.0,0,0,0,,2026-05-12T10:06:47.451Z,G_I,Letter
L,1,I,5,R,60,Backward,,f,1,594.0,0,0,0,,2026-05-12T10:06:56.825Z,R_I,Letter
L,1,I,6,R,120,Backward,,f,1,662.0,0,0,0,,2026-05-12T10:07:01.627Z,R_I,Letter
L,1,I,8,J,180,Backward,,j,0,686.7000000476837,1,1,1,,2026-05-12T10:07:08.876Z,J_I,Letter
L,1,I,10,R,0,Backward,,f,1,537.0,0,0,0,,2026-05-12T10:07:19.418Z,R_I,Letter
L,1,I,11,R,0,Normal,,f,0,419.0,0,0,0,,2026-05-12T10:07:23.985Z,R_I,Letter
L,1,I,12,J,60,Normal,,j,1,565.0,0,0,0,,2026-05-12T10:07:28.698Z,J_I,Letter
L,1,I,13,J,300,Normal,,j,1,587.0,0,0,0,,2026-05-12T10:07:33.451Z,J_I,Letter
L,1,I,14,R,120,Normal,,j,1,1201.0,0,0,0,,2026-05-12T10:07:38.800Z,R_I,Letter
L,1,I,16,G,240,Normal,,j,1,1197.0,0,0,0,,2026-05-12T10:07:48.895Z,G_I,Letter
L,1,I,18,G,120,Normal,,j,1,1326.0,0,0,0,,2026-05-12T10:07:59.874Z,G_I,Letter
L,1,I,20,J,300,Backward,,f,1,864.0,0,0,0,,2026-05-12T10:08:10.078Z,J_I,Letter
L,1,I,21,J,240,Backward,,f,1,962.0,0,0,0,,2026-05-12T10:08:15.193Z,J_I,Letter
L,1,I,22,G,300,Normal,,j,1,811.0,0,0,0,,2026-05-12T10:08:20.160Z,G_I,Letter
L,1,I,23,R,240,Normal,,j,1,718.0,0,0,0,,2026-05-12T10:08:25.035Z,R_I,Letter
L,1,I,24,R,300,Normal,,j,1,502.0,0,0,0,,2026-05-12T10:08:29.680Z,R_I,Letter
L,1,I,25,G,240,Backward,,f,1,802.0,0,0,0,,2026-05-12T10:08:34.633Z,G_I,Letter
L,1,I,27,R,300,Backward,,f,1,638.0,0,0,0,,2026-05-12T10:08:44.604Z,R_I,Letter
L,1,I,28,G,0,Normal,,j,1,498.0,0,0,0,,2026-05-12T10:08:49.250Z,G_I,Letter
L,1,I,29,J,180,Normal,,j,1,1069.0,0,0,0,,2026-05-12T10:08:54.451Z,J_I,Letter
L,1,I,30,J,120,Backward,,f,1,892.0,0,0,0,,2026-05-12T10:08:59.473Z,J_I,Letter
L,1,I,33,R,180,Backward,,f,1,1459.0,0,0,0,,2026-05-12T10:09:08.108Z,R_I,Letter
L,1,I,38,J,120,Normal,,j,1,642.0,0,0,0,,2026-05-12T10:09:34.341Z,J_I,Letter
L,1,I,39,G,300,Backward,,f,1,1072.0,0,0,0,,2026-05-12T10:09:39.538Z,G_I,Letter
L,1,I,40,J,60,Backward,,f,1,635.0,0,0,0,,2026-05-12T10:09:44.334Z,J_I,Letter
L,1,I,41,R,180,Normal,,j,1,1309.0,0,0,0,,2026-05-12T10:09:49.775Z,R_I,Letter
L,1,I,42,R,240,Backward,,f,1,630.0,0,0,0,,2026-05-12T10:09:54.527Z,R_I,Letter
L,1,I,45,J,0,Backward,,f,1,609.0,0,0,0,,2026-05-12T10:10:08.908Z,J_I,Letter
L,1,I,46,G,120,Backward,,f,1,1208.0,0,0,0,,2026-05-12T10:10:14.259Z,G_I,Letter
L,1,I,49,G,60,Backward,,f,1,670.0,0,0,0,,2026-05-12T10:10:28.851Z,G_I,Letter
L,1,I,57,G,180,Backward,,f,1,1100.0,0,0,0,,2026-05-12T10:11:08.312Z,G_I,Letter
L,1,I,63,G,60,Normal,,j,1,687.0,0,0,0,,2026-05-12T10:11:38.169Z,G_I,Letter
L,1,I,64,R,60,Normal,,j,1,1517.0,0,0,0,,2026-05-12T10:11:43.845Z,R_I,Letter
L,1,I,65,J,0,Normal,,j,1,419.0,0,0,0,,2026-05-12T10:11:48.413Z,J_I,Letter
L,1,I,69,J,240,Normal,,j,1,556.0,0,0,0,,2026-05-12T10:12:07.155Z,J_I,Letter
L,1,I,71,G,0,Backward,,f,1,957.0,0,0,0,,2026-05-12T10:12:16.856Z,G_I,Letter
L,1,I,74,J,180,Backward,,f,1,1091.0,0,0,0,,2026-05-12T10:12:32.303Z,J_I,Letter
L,1,O,5,R,0,Backward,,f,1,692.0,0,0,0,,2026-05-12T10:15:27.695Z,R_O,Letter
L,1,O,7,R,180,Normal,,f,0,1784.0,0,0,0,,2026-05-12T10:15:34.851Z,R_O,Letter
L,1,O,9,J,300,Backward,,f,1,975.0,0,0,0,,2026-05-12T10:15:40.728Z,J_O,Letter
L,1,O,12,J,300,Normal,,j,1,704.0,0,0,0,,2026-05-12T10:15:50.837Z,J_O,Letter
L,1,O,13,R,60,Normal,,j,1,809.0,0,0,0,,2026-05-12T10:15:53.796Z,R_O,Letter
L,1,O,14,R,0,Normal,,j,1,690.0,0,0,0,,2026-05-12T10:15:56.624Z,R_O,Letter
L,1,O,15,G,0,Backward,,f,1,530.0,0,0,0,,2026-05-12T10:15:59.279Z,G_O,Letter
L,1,O,16,J,120,Backward,,f,1,1415.0,0,0,0,,2026-05-12T10:16:02.832Z,J_O,Letter
L,1,O,17,G,60,Backward,,f,1,1445.0,0,0,0,,2026-05-12T10:16:06.414Z,G_O,Letter
L,1,O,22,G,240,Normal,,j,1,1134.0,0,0,0,,2026-05-12T10:16:22.783Z,G_O,Letter
L,1,O,24,G,300,Backward,,f,1,627.0,0,0,0,,2026-05-12T10:16:28.327Z,G_O,Letter
L,1,O,25,G,240,Backward,,f,1,1396.0,0,0,0,,2026-05-12T10:16:31.862Z,G_O,Letter
L,1,O,27,G,180,Backward,,j,0,2120.0,0,0,0,,2026-05-12T10:16:39.403Z,G_O,Letter
L,1,O,28,R,180,Backward,,f,1,1875.0,0,0,0,,2026-05-12T10:16:43.427Z,R_O,Letter
L,1,O,30,R,240,Backward,,f,1,964.0,0,0,0,,2026-05-12T10:16:49.448Z,R_O,Letter
L,1,O,31,G,0,Normal,,j,1,785.0,0,0,0,,2026-05-12T10:16:52.370Z,G_O,Letter
L,1,O,32,R,120,Backward,,f,1,1052.0,0,0,0,,2026-05-12T10:16:55.552Z,R_O,Letter
L,1,O,36,J,60,Normal,,j,1,1562.0,0,0,0,,2026-05-12T10:17:07.531Z,J_O,Letter
L,1,O,37,R,60,Backward,,f,1,783.0,0,0,0,,2026-05-12T10:17:10.453Z,R_O,Letter
L,1,O,40,R,120,Normal,,j,1,794.0,0,0,0,,2026-05-12T10:17:19.211Z,R_O,Letter
L,1,O,42,R,300,Normal,,j,1,645.0,0,0,0,,2026-05-12T10:17:25.046Z,R_O,Letter
L,1,O,45,G,120,Backward,,f,1,1332.0,0,0,0,,2026-05-12T10:17:33.916Z,G_O,Letter
L,1,O,46,G,120,Normal,,j,1,773.0,0,0,0,,2026-05-12T10:17:36.824Z,G_O,Letter
L,1,O,47,J,0,Backward,,f,1,1539.0,0,0,0,,2026-05-12T10:17:40.490Z,J_O,Letter
L,1,O,48,J,0,Normal,,j,1,438.0,0,0,0,,2026-05-12T10:17:43.056Z,J_O,Letter
L,1,O,50,J,120,Normal,,j,1,1342.0,0,0,0,,2026-05-12T10:17:49.459Z,J_O,Letter
L,1,O,52,J,240,Normal,,j,1,1084.0,0,0,0,,2026-05-12T10:17:55.635Z,J_O,Letter
L,1,O,54,J,60,Backward,,f,1,976.0,0,0,0,,2026-05-12T10:18:01.561Z,J_O,Letter
L,1,O,56,J,180,Backward,,j,0,2416.0,0,0,0,,2026-05-12T10:18:09.052Z,J_O,Letter
L,1,O,57,R,300,Backward,,f,1,1536.0,0,0,0,,2026-05-12T10:18:12.720Z,R_O,Letter
L,1,O,63,J,240,Backward,,f,1,1487.0,0,0,0,,2026-05-12T10:18:35.936Z,J_O,Letter
L,1,O,68,J,180,Normal,,j,1,1055.0,0,0,0,,2026-05-12T10:18:51.652Z,J_O,Letter
L,1,O,69,G,180,Normal,,j,1,1780.0,0,0,0,,2026-05-12T10:18:55.561Z,G_O,Letter
L,1,O,70,G,300,Normal,,j,1,985.0,0,0,0,,2026-05-12T10:18:58.683Z,G_O,Letter
L,1,O,71,G,60,Normal,,j,1,960.0,0,0,0,,2026-05-12T10:19:01.776Z,G_O,Letter
L,1,O,72,R,240,Normal,,j,1,1323.0,0,0,0,,2026-05-12T10:19:05.238Z,R_O,Letter
L,1,B,1,J,60,Normal,400.0,j,1,608.0,0,0,0,,2026-05-12T10:23:54.372Z,J_B,Letter
L,1,B,2,G,60,Backward,1000.0,f,1,410.0,0,0,0,,2026-05-12T10:23:59.951Z,G_B,Letter
L,1,B,4,R,60,Normal,100.0,j,1,560.0,0,0,0,,2026-05-12T10:24:09.846Z,R_B,Letter
L,1,B,6,J,0,Normal,400.0,j,1,433.0,0,0,0,,2026-05-12T10:24:20.811Z,J_B,Letter
L,1,B,10,R,0,Normal,400.0,j,1,430.0,0,0,0,,2026-05-12T10:24:42.078Z,R_B,Letter
L,1,B,13,J,0,Normal,1000.0,j,1,431.0,0,0,0,,2026-05-12T10:24:57.690Z,J_B,Letter
L,1,B,14,G,0,Normal,100.0,j,1,491.0,0,0,0,,2026-05-12T10:25:02.425Z,G_B,Letter
L,1,B,16,R,240,Normal,100.0,j,1,795.0,0,0,0,,2026-05-12T10:25:12.298Z,R_B,Letter
L,1,B,17,R,180,Backward,400.0,f,1,873.0,0,0,0,,2026-05-12T10:25:17.721Z,R_B,Letter
L,1,B,21,J,240,Backward,1000.0,f,1,1251.0,0,0,0,,2026-05-12T10:25:38.825Z,J_B,Letter
L,1,B,22,J,300,Backward,1000.0,f,1,604.0,0,0,0,,2026-05-12T10:25:44.593Z,J_B,Letter
L,1,B,24,J,0,Normal,100.0,j,1,511.0,0,0,0,,2026-05-12T10:25:56.383Z,J_B,Letter
L,1,B,25,G,60,Normal,100.0,j,1,735.0,0,0,0,,2026-05-12T10:26:01.370Z,G_B,Letter
L,1,B,27,R,120,Backward,400.0,f,1,626.0,0,0,0,,2026-05-12T10:26:12.255Z,R_B,Letter
L,1,B,28,J,120,Normal,400.0,j,1,1029.0,0,0,0,,2026-05-12T10:26:17.827Z,J_B,Letter
L,1,B,29,R,60,Backward,400.0,f,1,563.0,0,0,0,,2026-05-12T10:26:22.957Z,R_B,Letter
L,1,B,31,G,120,Backward,100.0,f,1,705.0,0,0,0,,2026-05-12T10:26:33.072Z,G_B,Letter
L,1,B,36,R,300,Normal,100.0,j,1,644.0,0,0,0,,2026-05-12T10:27:00.628Z,R_B,Letter
L,1,B,41,G,300,Normal,100.0,j,1,589.0,0,0,0,,2026-05-12T10:27:27.889Z,G_B,Letter
L,1,B,45,G,180,Normal,400.0,j,1,1081.0,0,0,0,,2026-05-12T10:27:50.078Z,G_B,Letter
L,1,B,46,G,60,Normal,400.0,j,1,568.0,0,0,0,,2026-05-12T10:27:55.197Z,G_B,Letter
L,1,B,49,J,240,Normal,100.0,j,1,684.0,0,0,0,,2026-05-12T10:28:11.253Z,J_B,Letter
L,1,B,51,R,120,Normal,400.0,j,1,1073.0,0,0,0,,2026-05-12T10:28:22.699Z,R_B,Letter
L,1,B,53,J,0,Backward,100.0,f,1,631.0,0,0,0,,2026-05-12T10:28:32.282Z,J_B,Letter
L,1,B,54,R,0,Normal,1000.0,j,1,314.0,0,0,0,,2026-05-12T10:28:37.754Z,R_B,Letter
L,1,B,57,R,0,Normal,100.0,j,1,589.0,0,0,0,,2026-05-12T10:28:52.540Z,R_B,Letter
L,1,B,63,J,180,Backward,1000.0,f,1,1454.0,0,0,0,,2026-05-12T10:29:27.889Z,J_B,Letter
L,1,B,64,J,60,Normal,1000.0,j,1,602.0,0,0,0,,2026-05-12T10:29:33.672Z,J_B,Letter
L,1,B,65,G,60,Normal,1000.0,j,1,721.0,0,0,0,,2026-05-12T10:29:39.556Z,G_B,Letter
L,1,B,70,G,0,Backward,100.0,f,1,690.0,0,0,0,,2026-05-12T10:30:05.357Z,G_B,Letter
L,1,B,71,G,240,Backward,400.0,f,1,1189.0,0,0,0,,2026-05-12T10:30:11.085Z,G_B,Letter
L,1,B,74,R,180,Normal,1000.0,j,1,703.0,0,0,0,,2026-05-12T10:30:27.072Z,R_B,Letter
L,1,B,75,G,240,Normal,100.0,j,1,786.0,0,0,0,,2026-05-12T10:30:32.104Z,G_B,Letter
L,1,B,79,R,0,Backward,1000.0,f,1,359.0,0,0,0,,2026-05-12T10:30:51.348Z,R_B,Letter
L,1,B,82,G,300,Backward,400.0,f,1,565.0,0,0,0,,2026-05-12T10:31:08.208Z,G_B,Letter
L,1,B,83,R,240,Backward,1000.0,f,1,1030.0,0,0,0,,2026-05-12T10:31:14.399Z,R_B,Letter
L,1,B,84,J,60,Backward,100.0,f,1,961.0,0,0,0,,2026-05-12T10:31:19.627Z,J_B,Letter
L,1,B,86,J,120,Backward,400.0,f,1,962.0,0,0,0,,2026-05-12T10:31:30.772Z,J_B,Letter
L,1,B,87,G,0,Backward,1000.0,f,1,494.0,0,0,0,,2026-05-12T10:31:36.414Z,G_B,Letter
L,1,B,88,R,240,Normal,400.0,j,1,749.0,0,0,0,,2026-05-12T10:31:41.725Z,R_B,Letter
L,1,B,89,R,0,Backward,400.0,f,1,574.0,0,0,0,,2026-05-12T10:31:46.851Z,R_B,Letter
L,1,B,93,R,0,Backward,100.0,f,1,670.0,0,0,0,,2026-05-12T10:32:07.834Z,R_B,Letter
L,1,B,94,G,120,Normal,400.0,j,1,1031.0,0,0,0,,2026-05-12T10:32:13.424Z,G_B,Letter
L,1,B,96,G,0,Backward,400.0,f,1,697.0,0,0,0,,2026-05-12T10:32:24.170Z,G_B,Letter
L,1,B,99,G,300,Normal,400.0,j,1,1009.0,0,0,0,,2026-05-12T10:32:41.285Z,G_B,Letter
L,1,B,100,J,180,Normal,1000.0,j,1,1466.0,0,0,0,,2026-05-12T10:32:47.898Z,J_B,Letter
L,1,B,103,G,120,Backward,400.0,f,1,1116.0,0,0,0,,2026-05-12T10:33:04.724Z,G_B,Letter
L,1,B,104,R,60,Backward,100.0,f,1,682.0,0,0,0,,2026-05-12T10:33:09.664Z,R_B,Letter
L,1,B,105,J,60,Normal,100.0,j,1,591.0,0,0,0,,2026-05-12T10:33:14.506Z,J_B,Letter
L,1,B,106,J,60,Backward,400.0,f,1,785.0,0,0,0,,2026-05-12T10:33:19.846Z,J_B,Letter
L,1,B,108,G,240,Normal,400.0,j,1,846.0,0,0,0,,2026-05-12T10:33:30.223Z,G_B,Letter
L,1,B,109,J,120,Normal,1000.0,j,1,681.0,0,0,0,,2026-05-12T10:33:36.066Z,J_B,Letter
L,1,B,110,J,300,Normal,400.0,j,1,650.0,0,0,0,,2026-05-12T10:33:41.276Z,J_B,Letter
L,1,B,111,R,300,Normal,400.0,j,1,461.0,0,0,0,,2026-05-12T10:33:46.287Z,R_B,Letter
L,1,B,112,J,300,Backward,100.0,f,1,768.0,0,0,0,,2026-05-12T10:33:51.317Z,J_B,Letter
L,1,B,114,J,180,Normal,100.0,j,1,1209.0,0,0,0,,2026-05-12T10:34:02.375Z,J_B,Letter
L,1,B,116,G,180,Backward,1000.0,f,1,1713.0,0,0,0,,2026-05-12T10:34:14.598Z,G_B,Letter
L,1,B,117,R,120,Normal,100.0,j,1,923.0,0,0,0,,2026-05-12T10:34:19.773Z,R_B,Letter
L,1,B,124,R,300,Normal,1000.0,j,1,514.0,0,0,0,,2026-05-12T10:34:56.100Z,R_B,Letter
L,1,B,125,R,120,Normal,1000.0,j,1,510.0,0,0,0,,2026-05-12T10:35:01.764Z,R_B,Letter
L,1,B,126,R,60,Normal,400.0,j,1,367.0,0,0,0,,2026-05-12T10:35:06.676Z,R_B,Letter
L,1,B,127,G,240,Backward,100.0,f,1,1141.0,0,0,0,,2026-05-12T10:35:12.057Z,G_B,Letter
L,1,B,128,R,300,Backward,400.0,f,1,527.0,0,0,0,,2026-05-12T10:35:17.151Z,R_B,Letter
L,1,B,130,J,180,Backward,100.0,f,1,1208.0,0,0,0,,2026-05-12T10:35:28.406Z,J_B,Letter
L,1,B,131,G,0,Normal,1000.0,j,1,478.0,0,0,0,,2026-05-12T10:35:34.046Z,G_B,Letter
L,1,B,132,J,120,Backward,100.0,f,1,1250.0,0,0,0,,2026-05-12T10:35:39.551Z,J_B,Letter
L,1,B,137,R,180,Normal,100.0,j,1,944.0,0,0,0,,2026-05-12T10:36:07.143Z,R_B,Letter
L,1,B,139,R,180,Normal,400.0,j,1,759.0,0,0,0,,2026-05-12T10:36:17.702Z,R_B,Letter
L,1,B,140,R,240,Normal,1000.0,j,1,458.0,0,0,0,,2026-05-12T10:36:23.313Z,R_B,Letter
L,1,B,141,R,240,Backward,400.0,f,1,602.0,0,0,0,,2026-05-12T10:36:28.462Z,R_B,Letter
L,1,B,143,G,180,Backward,400.0,f,1,1677.0,0,0,0,,2026-05-12T10:36:39.687Z,G_B,Letter
L,1,B,145,J,300,Normal,100.0,j,1,624.0,0,0,0,,2026-05-12T10:36:50.655Z,J_B,Letter
L,1,B,146,G,240,Backward,1000.0,f,1,650.0,0,0,0,,2026-05-12T10:36:56.470Z,G_B,Letter
L,1,B,147,J,180,Normal,400.0,j,1,755.0,0,0,0,,2026-05-12T10:37:01.781Z,J_B,Letter
L,1,B,150,J,300,Normal,1000.0,j,1,524.0,0,0,0,,2026-05-12T10:37:17.895Z,J_B,Letter
L,1,B,155,J,0,Backward,1000.0,f,1,499.0,0,0,0,,2026-05-12T10:37:49.133Z,J_B,Letter
L,1,B,158,J,240,Normal,400.0,j,1,637.0,0,0,0,,2026-05-12T10:38:05.432Z,J_B,Letter
L,1,B,159,R,300,Backward,100.0,f,1,813.0,0,0,0,,2026-05-12T10:38:10.495Z,R_B,Letter
L,1,B,160,R,240,Backward,100.0,f,1,821.0,0,0,0,,2026-05-12T10:38:15.568Z,R_B,Letter
L,1,B,161,G,300,Backward,100.0,f,1,631.0,0,0,0,,2026-05-12T10:38:20.445Z,G_B,Letter
L,1,B,162,R,180,Backward,1000.0,f,1,1315.0,0,0,0,,2026-05-12T10:38:26.921Z,R_B,Letter
L,1,B,163,G,300,Normal,1000.0,j,1,692.0,0,0,0,,2026-05-12T10:38:32.773Z,G_B,Letter
L,1,B,164,G,240,Normal,1000.0,j,1,894.0,0,0,0,,2026-05-12T10:38:38.827Z,G_B,Letter
L,1,B,165,R,300,Backward,1000.0,f,1,766.0,0,0,0,,2026-05-12T10:38:44.731Z,R_B,Letter
L,1,B,168,G,120,Backward,1000.0,f,1,1075.0,0,0,0,,2026-05-12T10:39:01.610Z,G_B,Letter
L,1,B,170,J,120,Normal,100.0,j,1,894.0,0,0,0,,2026-05-12T10:39:11.876Z,J_B,Letter
L,1,B,172,J,240,Backward,100.0,f,1,732.0,0,0,0,,2026-05-12T10:39:22.578Z,J_B,Letter
L,1,B,174,J,60,Backward,1000.0,f,1,1066.0,0,0,0,,2026-05-12T10:39:34.432Z,J_B,Letter
L,1,B,175,J,300,Backward,400.0,f,1,520.0,0,0,0,,2026-05-12T10:39:39.508Z,J_B,Letter
L,1,B,179,G,120,Normal,1000.0,j,1,774.0,0,0,0,,2026-05-12T10:40:02.028Z,G_B,Letter
L,1,B,180,J,240,Backward,400.0,f,1,733.0,0,0,0,,2026-05-12T10:40:07.308Z,J_B,Letter
L,1,B,182,G,0,Normal,400.0,j,1,483.0,0,0,0,,2026-05-12T10:40:17.355Z,G_B,Letter
L,1,B,185,J,180,Backward,400.0,f,1,1039.0,0,0,0,,2026-05-12T10:40:33.364Z,J_B,Letter
L,1,B,188,J,120,Backward,1000.0,f,1,608.0,0,0,0,,2026-05-12T10:40:49.576Z,J_B,Letter
L,1,B,189,R,120,Backward,1000.0,f,1,523.0,0,0,0,,2026-05-12T10:40:55.258Z,R_B,Letter
L,1,B,193,G,120,Normal,100.0,f,0,747.0,0,0,0,,2026-05-12T10:41:15.794Z,G_B,Letter
L,1,B,200,R,60,Backward,1000.0,f,1,732.0,0,0,0,,2026-05-12T10:41:53.602Z,R_B,Letter
L,1,B,202,G,300,Backward,1000.0,j,0,859.8000000119209,1,1,1,,2026-05-12T10:42:01.874Z,G_B,Letter
L,1,B,203,R,60,Normal,1000.0,j,1,499.0,0,0,0,,2026-05-12T10:42:08.677Z,R_B,Letter
L,1,B,205,J,0,Backward,400.0,f,1,719.0,0,0,0,,2026-05-12T10:42:19.011Z,J_B,Letter
L,1,B,206,G,60,Backward,100.0,f,1,728.0,0,0,0,,2026-05-12T10:42:23.991Z,G_B,Letter
L,1,B,207,G,180,Normal,100.0,j,1,936.0,0,0,0,,2026-05-12T10:42:29.185Z,G_B,Letter
L,1,B,208,G,60,Backward,400.0,f,1,550.0,0,0,0,,2026-05-12T10:42:34.289Z,G_B,Letter
L,1,B,212,R,120,Backward,100.0,f,1,715.0,0,0,0,,2026-05-12T10:42:55.094Z,R_B,Letter
L,1,B,213,G,180,Normal,1000.0,j,1,765.0,0,0,0,,2026-05-12T10:43:01.013Z,G_B,Letter
L,1,B,214,J,240,Normal,1000.0,j,1,627.0,0,0,0,,2026-05-12T10:43:06.790Z,J_B,Letter
L,1,B,218,G,300,Backward,1000.0,f,1,498.0,0,0,0,,2026-05-12T10:43:28.578Z,G_B,Letter
L,1,B,104,R,0,Backward,700.0,f,1,564.0,0,0,0,,2026-05-14T11:16:56.472Z,R_B,Letter
L,1,B,273,J,60,Normal,700.0,j,1,786.0,0,0,0,,2026-05-13T14:12:54.635Z,J_B,Letter
L,1,B,50,R,120,Normal,700.0,j,1,609.0,0,0,0,,2026-05-14T11:12:08.102Z,R_B,Letter
L,1,B,46,J,120,Backward,700.0,j,0,870.0,0,0,0,,2026-05-14T11:11:47.023Z,J_B,Letter
L,1,B,284,R,60,Backward,700.0,f,1,872.0,0,0,0,,2026-05-13T14:13:58.446Z,R_B,Letter
L,1,B,128,R,240,Normal,700.0,j,1,751.0,0,0,0,,2026-05-13T13:59:30.994Z,R_B,Letter
L,1,B,164,R,120,Backward,700.0,j,0,564.0,0,0,0,,2026-05-13T14:02:47.122Z,R_B,Letter
L,1,B,93,J,120,Backward,700.0,f,1,1335.0,0,0,0,,2026-05-13T13:56:13.933Z,J_B,Letter
L,1,B,231,J,60,Backward,700.0,j,0,573.0,0,0,0,,2026-05-14T11:28:18.903Z,J_B,Letter
L,1,B,221,R,0,Normal,700.0,j,1,651.0,0,0,0,,2026-05-13T14:08:05.567Z,R_B,Letter
L,1,B,16,R,300,Backward,700.0,f,1,868.0,0,0,0,,2026-05-13T13:49:00.396Z,R_B,Letter
L,1,B,139,G,240,Backward,700.0,f,1,1143.0,0,0,0,,2026-05-13T14:00:32.302Z,G_B,Letter
L,1,B,61,G,180,Backward,700.0,j,0,831.0,0,0,0,,2026-05-14T11:13:09.981Z,G_B,Letter
L,1,B,74,R,60,Normal,700.0,j,1,535.0,0,0,0,,2026-05-13T13:54:25.978Z,R_B,Letter
L,1,B,43,J,180,Normal,700.0,j,1,1741.0,0,0,0,,2026-05-13T13:51:32.251Z,J_B,Letter
L,1,B,226,R,240,Normal,700.0,j,1,621.0,0,0,0,,2026-05-14T11:27:50.729Z,R_B,Letter
L,1,B,18,G,120,Normal,700.0,j,1,846.0,0,0,0,,2026-05-14T11:09:17.581Z,G_B,Letter
L,1,B,88,G,300,Backward,700.0,f,1,484.0,0,0,0,,2026-05-14T11:15:31.532Z,G_B,Letter
L,1,B,2,J,300,Backward,700.0,f,1,1080.0,0,0,0,,2026-05-13T13:47:40.221Z,J_B,Letter
L,1,B,20,G,240,Backward,700.0,f,1,828.0,0,0,0,,2026-05-14T11:09:28.958Z,G_B,Letter
L,1,B,256,G,120,Backward,700.0,f,1,1014.0,0,0,0,,2026-05-13T14:11:19.116Z,G_B,Letter
L,1,B,243,G,180,Normal,700.0,j,1,1387.0,0,0,0,,2026-05-13T14:10:08.101Z,G_B,Letter
L,1,B,199,R,0,Normal,700.0,j,1,453.0,0,0,0,,2026-05-14T11:25:29.037Z,R_B,Letter
L,1,B,78,R,180,Backward,700.0,f,1,1381.0,0,0,0,,2026-05-14T11:14:39.867Z,R_B,Letter
L,1,B,55,G,60,Normal,700.0,f,0,447.0,0,0,0,,2026-05-14T11:12:35.041Z,G_B,Letter
L,1,B,175,R,300,Normal,700.0,j,1,486.0,0,0,0,,2026-05-13T14:03:48.801Z,R_B,Letter
L,1,B,124,G,240,Normal,700.0,j,1,927.0,0,0,0,,2026-05-13T13:59:09.491Z,G_B,Letter
L,1,B,24,J,0,Normal,700.0,j,1,444.0,0,0,0,,2026-05-14T11:09:50.138Z,J_B,Letter
L,1,B,131,R,300,Backward,700.0,f,1,503.0,0,0,0,,2026-05-14T11:19:20.687Z,R_B,Letter
L,1,B,40,J,0,Normal,700.0,j,1,795.0,0,0,0,,2026-05-13T13:51:14.611Z,J_B,Letter
L,1,B,130,G,0,Backward,700.0,f,1,685.0,0,0,0,,2026-05-13T13:59:42.165Z,G_B,Letter
L,1,B,217,G,180,Normal,700.0,j,1,926.0,0,0,0,,2026-05-14T11:27:02.303Z,G_B,Letter
L,1,B,121,G,0,Normal,700.0,j,1,685.0,0,0,0,,2026-05-13T13:58:51.926Z,G_B,Letter
L,1,B,283,J,120,Normal,700.0,j,1,628.0,0,0,0,,2026-05-13T14:13:52.723Z,J_B,Letter
L,1,B,195,G,120,Normal,700.0,j,1,950.0,0,0,0,,2026-05-13T14:05:40.584Z,G_B,Letter
L,1,C,3,J,120,Normal,,j,1,275.0,0,0,0,,2026-05-12T10:43:51.749Z,J_C,Letter
L,1,C,5,J,60,Backward,,f,1,221.0,0,0,0,,2026-05-12T10:44:00.492Z,J_C,Letter
L,1,C,12,G,300,Backward,,f,1,110.0,1,0,0,,2026-05-12T10:44:31.217Z,G_C,Letter
L,1,C,16,R,120,Backward,,f,1,198.0,0,0,0,,2026-05-12T10:44:48.453Z,R_C,Letter
L,1,C,17,R,120,Normal,,j,1,279.0,0,0,0,,2026-05-12T10:44:52.868Z,R_C,Letter
L,1,C,18,G,60,Backward,,f,1,248.0,0,0,0,,2026-05-12T10:44:57.271Z,G_C,Letter
L,1,C,20,J,0,Backward,,f,1,130.0,1,0,0,,2026-05-12T10:45:05.887Z,J_C,Letter
L,1,C,23,R,60,Backward,,f,1,284.0,0,0,0,,2026-05-12T10:45:18.857Z,R_C,Letter
L,1,C,27,G,180,Normal,,j,1,321.0,0,0,0,,2026-05-12T10:45:35.711Z,G_C,Letter
L,1,C,28,R,180,Backward,,f,1,284.0,0,0,0,,2026-05-12T10:45:40.139Z,R_C,Letter
L,1,C,29,G,300,Normal,,j,1,246.0,0,0,0,,2026-05-12T10:45:44.531Z,G_C,Letter
L,1,C,31,G,240,Normal,,j,1,156.0,0,0,0,,2026-05-12T10:45:53.296Z,G_C,Letter
L,1,C,33,R,60,Normal,,j,1,256.0,0,0,0,,2026-05-12T10:46:02.430Z,R_C,Letter
L,1,C,34,J,240,Normal,,j,1,218.0,0,0,0,,2026-05-12T10:46:06.790Z,J_C,Letter
L,1,C,35,G,60,Normal,,j,1,275.0,0,0,0,,2026-05-12T10:46:11.214Z,G_C,Letter
L,1,C,36,J,120,Backward,,f,0,414.1999999880791,1,1,1,,2026-05-12T10:46:15.374Z,J_C,Letter
L,1,C,38,G,120,Normal,,j,1,401.0,0,0,0,,2026-05-12T10:46:24.923Z,G_C,Letter
L,1,C,40,G,180,Backward,,f,1,216.0,0,0,0,,2026-05-12T10:46:33.654Z,G_C,Letter
L,1,C,41,J,300,Backward,,f,1,212.0,0,0,0,,2026-05-12T10:46:38.016Z,J_C,Letter
L,1,C,44,R,300,Backward,,f,1,250.0,0,0,0,,2026-05-12T10:46:50.907Z,R_C,Letter
L,1,C,46,J,0,Normal,,j,1,207.0,0,0,0,,2026-05-12T10:46:59.665Z,J_C,Letter
L,1,C,53,R,300,Normal,,j,1,216.0,0,0,0,,2026-05-12T10:47:29.987Z,R_C,Letter
L,1,C,54,R,180,Normal,,j,1,247.0,0,0,0,,2026-05-12T10:47:34.385Z,R_C,Letter
L,1,C,56,J,180,Backward,,f,1,209.0,0,0,0,,2026-05-12T10:47:43.115Z,J_C,Letter
L,1,C,57,J,60,Normal,,j,1,230.0,0,0,0,,2026-05-12T10:47:47.486Z,J_C,Letter
L,1,C,58,J,180,Normal,,j,1,238.0,0,0,0,,2026-05-12T10:47:51.877Z,J_C,Letter
L,1,C,61,R,240,Normal,,j,1,208.0,0,0,0,,2026-05-12T10:48:04.916Z,R_C,Letter
L,1,C,62,G,240,Backward,,f,1,270.0,0,0,0,,2026-05-12T10:48:09.342Z,G_C,Letter
L,1,C,64,R,240,Backward,,f,1,192.0,0,0,0,,2026-05-12T10:48:18.029Z,R_C,Letter
L,1,C,66,G,0,Normal,,j,1,204.0,0,0,0,,2026-05-12T10:48:27.594Z,G_C,Letter
L,1,C,67,G,0,Backward,,f,1,190.0,0,0,0,,2026-05-12T10:48:31.942Z,G_C,Letter
L,1,C,68,G,120,Backward,,f,1,166.0,0,0,0,,2026-05-12T10:48:36.254Z,G_C,Letter
L,1,C,69,J,300,Normal,,j,1,199.0,0,0,0,,2026-05-12T10:48:40.602Z,J_C,Letter
L,1,C,71,R,0,Normal,,j,1,146.0,1,0,0,,2026-05-12T10:48:49.286Z,R_C,Letter
L,1,C,76,J,120,Backward,,f,1,225.0,0,0,0,,2026-05-12T10:49:09.712Z,J_C,Letter
C,1,N,1,R,240,Normal,,j,1,855.0,0,0,0,,2026-05-14T10:49:37.978Z,R_N,Letter
C,1,N,5,R,300,Normal,,j,1,653.0,0,0,0,,2026-05-14T10:49:47.318Z,R_N,Letter
C,1,N,6,G,0,Normal,,j,1,494.0,0,0,0,,2026-05-14T10:49:49.534Z,G_N,Letter
C,1,N,8,R,300,Backward,,f,1,763.0,0,0,0,,2026-05-14T10:49:54.384Z,R_N,Letter
C,1,N,10,J,180,Backward,,f,1,2325.0,0,0,0,,2026-05-14T10:50:00.763Z,J_N,Letter
C,1,N,12,R,0,Normal,,j,1,523.0,0,0,0,,2026-05-14T10:50:05.544Z,R_N,Letter
C,1,N,17,J,300,Normal,,j,1,612.0,0,0,0,,2026-05-14T10:50:17.866Z,J_N,Letter
C,1,N,19,G,120,Normal,,j,1,871.0,0,0,0,,2026-05-14T10:50:22.683Z,G_N,Letter
C,1,N,21,J,60,Normal,,j,1,702.0,0,0,0,,2026-05-14T10:50:27.795Z,J_N,Letter
C,1,N,22,G,300,Backward,,f,1,785.0,0,0,0,,2026-05-14T10:50:30.306Z,G_N,Letter
C,1,N,23,J,240,Normal,,j,1,754.0,0,0,0,,2026-05-14T10:50:32.775Z,J_N,Letter
C,1,N,26,R,180,Normal,,f,0,778.0,0,0,0,,2026-05-14T10:50:40.256Z,R_N,Letter
C,1,N,30,G,300,Normal,,j,1,1049.0,0,0,0,,2026-05-14T10:50:49.778Z,G_N,Letter
C,1,N,32,R,60,Backward,,f,1,701.0,0,0,0,,2026-05-14T10:50:54.531Z,R_N,Letter
C,1,N,35,G,60,Normal,,j,1,652.0,0,0,0,,2026-05-14T10:51:01.571Z,G_N,Letter
C,1,N,36,G,240,Normal,,f,0,564.0,0,0,0,,2026-05-14T10:51:03.849Z,G_N,Letter
C,1,N,39,J,120,Normal,,j,1,781.0,0,0,0,,2026-05-14T10:51:10.949Z,J_N,Letter
C,1,N,42,R,240,Backward,,j,0,528.0,0,0,0,,2026-05-14T10:51:17.663Z,R_N,Letter
C,1,N,43,J,0,Normal,,j,1,569.0,0,0,0,,2026-05-14T10:51:19.970Z,J_N,Letter
C,1,N,44,G,180,Backward,,f,1,597.0,0,0,0,,2026-05-14T10:51:22.299Z,G_N,Letter
C,1,N,45,R,60,Normal,,j,1,515.0,0,0,0,,2026-05-14T10:51:24.532Z,R_N,Letter
C,1,N,47,J,120,Backward,,f,1,811.0,0,0,0,,2026-05-14T10:51:29.936Z,J_N,Letter
C,1,N,51,G,120,Backward,,f,1,866.0,0,0,0,,2026-05-14T10:51:39.533Z,G_N,Letter
C,1,N,53,J,240,Backward,,j,0,985.0,0,0,0,,2026-05-14T10:51:44.719Z,J_N,Letter
C,1,N,54,J,180,Normal,,j,1,1637.0,0,0,0,,2026-05-14T10:51:48.086Z,J_N,Letter
C,1,N,57,J,60,Backward,,f,1,688.0,0,0,0,,2026-05-14T10:51:55.371Z,J_N,Letter
C,1,N,58,G,240,Backward,,f,1,928.0,0,0,0,,2026-05-14T10:51:58.019Z,G_N,Letter
C,1,N,59,G,0,Backward,,f,1,824.0,0,0,0,,2026-05-14T10:52:00.567Z,G_N,Letter
C,1,N,60,G,180,Normal,,j,1,1639.0,0,0,0,,2026-05-14T10:52:03.931Z,G_N,Letter
C,1,N,61,R,120,Normal,,j,1,955.0,0,0,0,,2026-05-14T10:52:06.613Z,R_N,Letter
C,1,N,64,R,0,Backward,,f,1,664.0,0,0,0,,2026-05-14T10:52:13.727Z,R_N,Letter
C,1,N,65,J,0,Backward,,j,0,740.0,0,0,0,,2026-05-14T10:52:16.197Z,J_N,Letter
C,1,N,66,R,180,Backward,,f,1,889.0,0,0,0,,2026-05-14T10:52:18.813Z,R_N,Letter
C,1,N,69,G,60,Backward,,f,1,978.0,0,0,0,,2026-05-14T10:52:27.066Z,G_N,Letter
C,1,N,71,R,120,Backward,,f,1,879.0,0,0,0,,2026-05-14T10:52:31.894Z,R_N,Letter
C,1,N,72,J,300,Backward,,f,1,710.0,0,0,0,,2026-05-14T10:52:34.333Z,J_N,Letter
C,1,I,3,R,240,Backward,,f,1,727.0,0,0,0,,2026-05-14T10:54:59.475Z,R_I,Letter
C,1,I,4,G,0,Normal,,j,1,602.0,0,0,0,,2026-05-14T10:55:04.225Z,G_I,Letter
C,1,I,6,J,60,Normal,,j,1,549.0,0,0,0,,2026-05-14T10:55:13.742Z,J_I,Letter
C,1,I,7,J,300,Backward,,f,1,709.0,0,0,0,,2026-05-14T10:55:18.617Z,J_I,Letter
C,1,I,8,J,0,Backward,,f,1,703.0,0,0,0,,2026-05-14T10:55:23.468Z,J_I,Letter
C,1,I,10,G,120,Backward,,f,1,947.0,0,0,0,,2026-05-14T10:55:33.353Z,G_I,Letter
C,1,I,18,R,120,Normal,,j,1,655.0,0,0,0,,2026-05-14T10:56:11.537Z,R_I,Letter
C,1,I,22,J,0,Normal,,f,0,466.0,0,0,0,,2026-05-14T10:56:30.520Z,J_I,Letter
C,1,I,23,R,240,Normal,,j,1,1079.0,0,0,0,,2026-05-14T10:56:35.744Z,R_I,Letter
C,1,I,26,R,0,Normal,,j,1,396.0,0,0,0,,2026-05-14T10:56:49.434Z,R_I,Letter
C,1,I,28,G,240,Backward,,j,0,523.0,0,0,0,,2026-05-14T10:56:58.720Z,G_I,Letter
C,1,I,29,G,120,Normal,,f,0,429.0,0,0,0,,2026-05-14T10:57:03.274Z,G_I,Letter
C,1,I,30,R,300,Normal,,j,1,522.0,0,0,0,,2026-05-14T10:57:07.953Z,R_I,Letter
C,1,I,31,R,300,Backward,,f,1,443.0,0,0,0,,2026-05-14T10:57:12.517Z,R_I,Letter
C,1,I,32,G,300,Normal,,j,1,610.0,0,0,0,,2026-05-14T10:57:17.251Z,G_I,Letter
C,1,I,34,G,240,Normal,,j,1,796.0,0,0,0,,2026-05-14T10:57:26.769Z,G_I,Letter
C,1,I,35,G,0,Backward,,f,1,518.0,0,0,0,,2026-05-14T10:57:31.441Z,G_I,Letter
C,1,I,36,R,180,Backward,,f,1,906.0,0,0,0,,2026-05-14T10:57:36.495Z,R_I,Letter
C,1,I,37,J,240,Backward,,f,1,1107.0,0,0,0,,2026-05-14T10:57:41.737Z,J_I,Letter
C,1,I,38,G,180,Backward,,f,1,756.0,0,0,0,,2026-05-14T10:57:46.651Z,G_I,Letter
C,1,I,39,J,120,Backward,,f,1,971.0,0,0,0,,2026-05-14T10:57:51.762Z,J_I,Letter
C,1,I,40,J,240,Normal,,j,1,957.0,0,0,0,,2026-05-14T10:57:56.860Z,J_I,Letter
C,1,I,41,G,180,Normal,,f,0,1007.0,0,0,0,,2026-05-14T10:58:01.992Z,G_I,Letter
C,1,I,45,J,180,Normal,,f,0,1253.0,0,0,0,,2026-05-14T10:58:21.674Z,J_I,Letter
C,1,I,46,R,120,Backward,,f,1,800.0,0,0,0,,2026-05-14T10:58:26.615Z,R_I,Letter
C,1,I,47,J,180,Backward,,f,1,1392.0,0,0,0,,2026-05-14T10:58:32.136Z,J_I,Letter
C,1,I,48,R,0,Backward,,f,1,585.0,0,0,0,,2026-05-14T10:58:36.856Z,R_I,Letter
C,1,I,49,G,300,Backward,,f,1,1034.0,0,0,0,,2026-05-14T10:58:42.015Z,G_I,Letter
C,1,I,51,J,120,Normal,,j,1,977.0,0,0,0,,2026-05-14T10:58:51.898Z,J_I,Letter
C,1,I,54,J,300,Normal,,j,1,723.0,0,0,0,,2026-05-14T10:59:06.396Z,J_I,Letter
C,1,I,55,G,60,Backward,,f,1,614.0,0,0,0,,2026-05-14T10:59:11.170Z,G_I,Letter
C,1,I,60,R,60,Backward,,f,1,665.0,0,0,0,,2026-05-14T10:59:36.459Z,R_I,Letter
C,1,I,63,R,60,Normal,,j,1,536.0,0,0,0,,2026-05-14T10:59:50.625Z,R_I,Letter
C,1,I,67,G,60,Normal,,j,1,816.0,0,0,0,,2026-05-14T11:00:10.368Z,G_I,Letter
C,1,I,70,R,180,Normal,,f,0,552.0,0,0,0,,2026-05-14T11:00:24.464Z,R_I,Letter
C,1,I,72,J,60,Backward,,f,1,802.0,0,0,0,,2026-05-14T11:00:34.316Z,J_I,Letter
C,1,O,3,G,60,Normal,,j,1,746.0,0,0,0,,2026-05-14T11:02:43.087Z,G_O,Letter
C,1,O,4,G,240,Backward,,f,1,1024.0,0,0,0,,2026-05-14T11:02:46.250Z,G_O,Letter
C,1,O,5,G,300,Backward,,f,1,747.0,0,0,0,,2026-05-14T11:02:49.123Z,G_O,Letter
C,1,O,7,J,60,Normal,,j,1,732.0,0,0,0,,2026-05-14T11:02:55.044Z,J_O,Letter
C,1,O,8,G,120,Backward,,f,1,935.0,0,0,0,,2026-05-14T11:02:58.119Z,G_O,Letter
C,1,O,11,G,120,Normal,,j,1,804.0,0,0,0,,2026-05-14T11:03:06.712Z,G_O,Letter
C,1,O,13,J,180,Normal,,j,1,1469.0,0,0,0,,2026-05-14T11:03:12.976Z,J_O,Letter
C,1,O,15,J,240,Backward,,f,1,1109.0,0,0,0,,2026-05-14T11:03:19.117Z,J_O,Letter
C,1,O,17,G,240,Normal,,j,1,855.0,0,0,0,,2026-05-14T11:03:24.762Z,G_O,Letter
C,1,O,19,G,180,Normal,,f,0,654.0,0,0,0,,2026-05-14T11:03:30.178Z,G_O,Letter
C,1,O,20,R,120,Backward,,f,1,871.0,0,0,0,,2026-05-14T11:03:33.186Z,R_O,Letter
C,1,O,24,J,0,Backward,,f,1,566.0,0,0,0,,2026-05-14T11:03:45.851Z,J_O,Letter
C,1,O,25,G,0,Normal,,j,1,649.0,0,0,0,,2026-05-14T11:03:48.634Z,G_O,Letter
C,1,O,28,R,60,Backward,,f,1,607.0,0,0,0,,2026-05-14T11:03:56.674Z,R_O,Letter
C,1,O,30,J,120,Backward,,f,1,1265.0,0,0,0,,2026-05-14T11:04:03.623Z,J_O,Letter
C,1,O,31,R,0,Backward,,f,1,574.0,0,0,0,,2026-05-14T11:04:06.308Z,R_O,Letter
C,1,O,32,G,300,Normal,,j,1,608.0,0,0,0,,2026-05-14T11:04:09.042Z,G_O,Letter
C,1,O,33,J,180,Backward,,f,1,1672.0,0,0,0,,2026-05-14T11:04:12.855Z,J_O,Letter
C,1,O,37,R,240,Backward,,j,0,809.0,0,0,0,,2026-05-14T11:04:24.554Z,R_O,Letter
C,1,O,41,J,300,Normal,,j,1,1062.0,0,0,0,,2026-05-14T11:04:37.158Z,J_O,Letter
C,1,O,42,R,60,Normal,,j,1,787.0,0,0,0,,2026-05-14T11:04:40.095Z,R_O,Letter
C,1,O,43,R,180,Backward,,f,1,1566.0,0,0,0,,2026-05-14T11:04:43.807Z,R_O,Letter
C,1,O,46,J,120,Normal,,j,1,1094.0,0,0,0,,2026-05-14T11:04:52.309Z,J_O,Letter
C,1,O,48,G,180,Backward,,f,1,1430.0,0,0,0,,2026-05-14T11:04:58.569Z,G_O,Letter
C,1,O,49,J,60,Backward,,j,0,793.0,0,0,0,,2026-05-14T11:05:01.509Z,J_O,Letter
C,1,O,54,R,240,Normal,,j,1,969.0,0,0,0,,2026-05-14T11:05:16.301Z,R_O,Letter
C,1,O,55,R,300,Normal,,j,1,477.0,0,0,0,,2026-05-14T11:05:18.920Z,R_O,Letter
C,1,O,57,J,300,Backward,,f,1,797.0,0,0,0,,2026-05-14T11:05:24.597Z,J_O,Letter
C,1,O,59,J,0,Normal,,j,1,459.0,0,0,0,,2026-05-14T11:05:30.025Z,J_O,Letter
C,1,O,60,R,300,Backward,,f,1,663.0,0,0,0,,2026-05-14T11:05:32.837Z,R_O,Letter
C,1,O,61,J,240,Normal,,j,1,1041.0,0,0,0,,2026-05-14T11:05:36.016Z,J_O,Letter
C,1,O,62,R,0,Normal,,j,1,519.0,0,0,0,,2026-05-14T11:05:38.680Z,R_O,Letter
C,1,O,64,G,60,Backward,,f,1,788.0,0,0,0,,2026-05-14T11:05:44.295Z,G_O,Letter
C,1,O,67,R,180,Normal,,f,0,783.0,0,0,0,,2026-05-14T11:05:52.666Z,R_O,Letter
C,1,O,68,G,0,Backward,,f,1,720.0,0,0,0,,2026-05-14T11:05:55.525Z,G_O,Letter
C,1,O,71,R,120,Normal,,f,0,628.0,0,0,0,,2026-05-14T11:06:04.201Z,R_O,Letter
C,1,B,4,R,60,Normal,700.0,j,1,482.0,0,0,0,,2026-05-14T11:07:59.084Z,R_B,Letter
C,1,B,8,G,180,Normal,400.0,j,1,1182.0,0,0,0,,2026-05-14T11:08:21.616Z,G_B,Letter
C,1,B,12,J,300,Normal,1000.0,j,1,780.0,0,0,0,,2026-05-14T11:08:43.566Z,J_B,Letter
C,1,B,13,J,300,Backward,1000.0,f,1,470.0,0,0,0,,2026-05-14T11:08:49.174Z,J_B,Letter
C,1,B,15,J,120,Backward,400.0,f,1,911.0,0,0,0,,2026-05-14T11:09:00.405Z,J_B,Letter
C,1,B,16,G,300,Normal,1000.0,j,1,629.0,0,0,0,,2026-05-14T11:09:06.191Z,G_B,Letter
C,1,B,17,J,240,Backward,400.0,f,1,1177.0,0,0,0,,2026-05-14T11:09:11.896Z,J_B,Letter
C,1,B,18,G,120,Normal,700.0,j,1,846.0,0,0,0,,2026-05-14T11:09:17.581Z,G_B,Letter
C,1,B,20,G,240,Backward,700.0,f,1,828.0,0,0,0,,2026-05-14T11:09:28.958Z,G_B,Letter
C,1,B,21,G,180,Backward,400.0,f,1,710.0,0,0,0,,2026-05-14T11:09:34.238Z,G_B,Letter
C,1,B,23,R,240,Normal,400.0,j,1,796.0,0,0,0,,2026-05-14T11:09:44.840Z,R_B,Letter
C,1,B,24,J,0,Normal,700.0,j,1,444.0,0,0,0,,2026-05-14T11:09:50.138Z,J_B,Letter
C,1,B,26,R,300,Backward,1000.0,f,1,490.0,0,0,0,,2026-05-14T11:10:00.800Z,R_B,Letter
C,1,B,27,G,180,Backward,1000.0,f,1,1215.0,0,0,0,,2026-05-14T11:10:07.158Z,G_B,Letter
C,1,B,32,G,60,Backward,1000.0,f,1,456.0,0,0,0,,2026-05-14T11:10:33.898Z,G_B,Letter
C,1,B,33,G,120,Backward,1000.0,f,1,423.0,0,0,0,,2026-05-14T11:10:39.467Z,G_B,Letter
C,1,B,35,J,120,Normal,100.0,j,1,1131.0,0,0,0,,2026-05-14T11:10:49.733Z,J_B,Letter
C,1,B,37,G,120,Backward,100.0,f,1,749.0,0,0,0,,2026-05-14T11:10:59.769Z,G_B,Letter
C,1,B,41,R,240,Backward,400.0,f,1,555.0,0,0,0,,2026-05-14T11:11:20.797Z,R_B,Letter
C,1,B,43,G,60,Normal,400.0,j,1,403.0,0,0,0,,2026-05-14T11:11:30.812Z,G_B,Letter
C,1,B,44,R,0,Normal,400.0,j,1,480.0,0,0,0,,2026-05-14T11:11:35.849Z,R_B,Letter
C,1,B,46,J,120,Backward,700.0,j,0,870.0,0,0,0,,2026-05-14T11:11:47.023Z,J_B,Letter
C,1,B,47,G,120,Backward,400.0,f,1,665.0,0,0,0,,2026-05-14T11:11:52.232Z,G_B,Letter
C,1,B,50,R,120,Normal,700.0,j,1,609.0,0,0,0,,2026-05-14T11:12:08.102Z,R_B,Letter
C,1,B,51,J,240,Normal,400.0,j,1,719.0,0,0,0,,2026-05-14T11:12:13.361Z,J_B,Letter
C,1,B,54,G,300,Backward,400.0,f,1,580.0,0,0,0,,2026-05-14T11:12:29.741Z,G_B,Letter
C,1,B,55,G,60,Normal,700.0,f,0,447.0,0,0,0,,2026-05-14T11:12:35.041Z,G_B,Letter
C,1,B,58,G,0,Backward,400.0,f,1,506.0,0,0,0,,2026-05-14T11:12:52.934Z,G_B,Letter
C,1,B,59,J,180,Normal,700.0,j,1,1066.0,0,0,0,,2026-05-14T11:12:58.852Z,J_B,Letter
C,1,B,61,G,180,Backward,700.0,j,0,831.0,0,0,0,,2026-05-14T11:13:09.981Z,G_B,Letter
C,1,B,62,R,0,Backward,400.0,f,1,615.0,0,0,0,,2026-05-14T11:13:15.133Z,R_B,Letter
C,1,B,64,R,60,Backward,100.0,f,1,608.0,0,0,0,,2026-05-14T11:13:25.292Z,R_B,Letter
C,1,B,65,G,300,Backward,100.0,f,1,649.0,0,0,0,,2026-05-14T11:13:30.186Z,G_B,Letter
C,1,B,67,G,300,Normal,100.0,j,1,725.0,0,0,0,,2026-05-14T11:13:40.274Z,G_B,Letter
C,1,B,68,J,120,Backward,1000.0,f,1,602.0,0,0,0,,2026-05-14T11:13:46.040Z,J_B,Letter
C,1,B,69,J,240,Normal,100.0,j,1,866.0,0,0,0,,2026-05-14T11:13:51.152Z,J_B,Letter
C,1,B,75,J,180,Normal,100.0,f,0,656.0,0,0,0,,2026-05-14T11:14:23.740Z,J_B,Letter
C,1,B,76,J,0,Normal,100.0,j,1,478.0,0,0,0,,2026-05-14T11:14:28.457Z,J_B,Letter
C,1,B,78,R,180,Backward,700.0,f,1,1381.0,0,0,0,,2026-05-14T11:14:39.867Z,R_B,Letter
C,1,B,80,R,60,Backward,400.0,f,1,437.0,0,0,0,,2026-05-14T11:14:50.359Z,R_B,Letter
C,1,B,81,J,60,Backward,100.0,f,1,720.0,0,0,0,,2026-05-14T11:14:55.324Z,J_B,Letter
C,1,B,82,J,300,Backward,700.0,f,1,595.0,0,0,0,,2026-05-14T11:15:00.759Z,J_B,Letter
C,1,B,83,J,180,Backward,100.0,f,1,782.0,0,0,0,,2026-05-14T11:15:05.793Z,J_B,Letter
C,1,B,86,J,0,Backward,700.0,f,1,502.0,0,0,0,,2026-05-14T11:15:20.789Z,J_B,Letter
C,1,B,88,G,300,Backward,700.0,f,1,484.0,0,0,0,,2026-05-14T11:15:31.532Z,G_B,Letter
C,1,B,89,J,240,Normal,700.0,j,1,609.0,0,0,0,,2026-05-14T11:15:36.987Z,J_B,Letter
C,1,B,94,J,60,Normal,400.0,j,1,631.0,0,0,0,,2026-05-14T11:16:04.624Z,J_B,Letter
C,1,B,100,G,120,Backward,700.0,f,1,858.0,0,0,0,,2026-05-14T11:16:35.584Z,G_B,Letter
C,1,B,104,R,0,Backward,700.0,f,1,564.0,0,0,0,,2026-05-14T11:16:56.472Z,R_B,Letter
C,1,B,105,G,300,Normal,400.0,j,1,540.0,0,0,0,,2026-05-14T11:17:01.564Z,G_B,Letter
C,1,B,109,R,180,Normal,400.0,f,0,695.0,0,0,0,,2026-05-14T11:17:22.802Z,R_B,Letter
C,1,B,110,J,240,Backward,1000.0,j,0,890.0,0,0,0,,2026-05-14T11:17:28.853Z,J_B,Letter
C,1,B,112,G,180,Normal,1000.0,j,1,858.0,0,0,0,,2026-05-14T11:17:40.125Z,G_B,Letter
C,1,B,113,J,0,Backward,100.0,f,1,618.0,0,0,0,,2026-05-14T11:17:45.002Z,J_B,Letter
C,1,B,114,R,240,Backward,1000.0,j,0,1032.0,0,0,0,,2026-05-14T11:17:51.198Z,R_B,Letter
C,1,B,117,J,300,Normal,100.0,j,1,634.0,0,0,0,,2026-05-14T11:18:06.510Z,J_B,Letter
C,1,B,119,R,60,Normal,400.0,j,1,501.0,0,0,0,,2026-05-14T11:18:17.183Z,R_B,Letter
C,1,B,122,R,300,Backward,100.0,f,1,643.0,0,0,0,,2026-05-14T11:18:32.807Z,R_B,Letter
C,1,B,124,R,60,Normal,1000.0,j,1,458.0,0,0,0,,2026-05-14T11:18:43.919Z,R_B,Letter
C,1,B,125,J,60,Normal,1000.0,j,1,432.0,0,0,0,,2026-05-14T11:18:49.497Z,J_B,Letter
C,1,B,127,R,300,Normal,700.0,j,1,442.0,0,0,0,,2026-05-14T11:18:59.694Z,R_B,Letter
C,1,B,131,R,300,Backward,700.0,f,1,503.0,0,0,0,,2026-05-14T11:19:20.687Z,R_B,Letter
C,1,B,133,R,300,Backward,400.0,j,0,654.0,0,0,0,,2026-05-14T11:19:31.439Z,R_B,Letter
C,1,B,135,J,0,Backward,1000.0,f,1,466.0,0,0,0,,2026-05-14T11:19:43.077Z,J_B,Letter
C,1,B,139,G,60,Normal,100.0,j,1,694.0,0,0,0,,2026-05-14T11:20:05.713Z,G_B,Letter
C,1,B,140,G,60,Backward,700.0,f,1,526.0,0,0,0,,2026-05-14T11:20:11.103Z,G_B,Letter
C,1,B,141,G,0,Normal,1000.0,j,1,422.0,0,0,0,,2026-05-14T11:20:16.665Z,G_B,Letter
C,1,B,144,G,120,Normal,100.0,f,0,768.0,0,0,0,,2026-05-14T11:20:31.969Z,G_B,Letter
C,1,B,145,J,300,Normal,700.0,j,1,537.0,0,0,0,,2026-05-14T11:20:37.353Z,J_B,Letter
C,1,B,147,R,180,Normal,1000.0,j,1,805.0,0,0,0,,2026-05-14T11:20:48.928Z,R_B,Letter
C,1,B,149,G,240,Backward,1000.0,f,1,856.0,0,0,0,,2026-05-14T11:20:59.712Z,G_B,Letter
C,1,B,150,J,300,Backward,400.0,f,1,478.0,0,0,0,,2026-05-14T11:21:04.749Z,J_B,Letter
C,1,B,153,R,300,Normal,100.0,j,1,909.0,0,0,0,,2026-05-14T11:21:19.857Z,R_B,Letter
C,1,B,154,R,120,Backward,100.0,f,1,832.0,0,0,0,,2026-05-14T11:21:24.936Z,R_B,Letter
C,1,B,157,G,0,Backward,100.0,f,1,761.0,0,0,0,,2026-05-14T11:21:40.776Z,G_B,Letter
C,1,B,158,R,0,Backward,1000.0,f,1,409.0,0,0,0,,2026-05-14T11:21:46.333Z,R_B,Letter
C,1,B,162,J,180,Backward,1000.0,f,1,808.0,0,0,0,,2026-05-14T11:22:08.206Z,J_B,Letter
C,1,B,164,J,240,Backward,100.0,f,1,871.0,0,0,0,,2026-05-14T11:22:18.217Z,J_B,Letter
C,1,B,166,R,180,Normal,700.0,j,1,1213.0,0,0,0,,2026-05-14T11:22:29.792Z,R_B,Letter
C,1,B,169,J,60,Backward,400.0,f,1,566.0,0,0,0,,2026-05-14T11:22:45.164Z,J_B,Letter
C,1,B,171,R,240,Normal,1000.0,j,1,726.0,0,0,0,,2026-05-14T11:22:56.592Z,R_B,Letter
C,1,B,172,G,120,Normal,1000.0,j,1,558.0,0,0,0,,2026-05-14T11:23:02.299Z,G_B,Letter
C,1,B,176,R,60,Normal,100.0,j,1,606.0,0,0,0,,2026-05-14T11:23:23.176Z,R_B,Letter
C,1,B,177,R,240,Normal,100.0,j,1,791.0,0,0,0,,2026-05-14T11:23:28.201Z,R_B,Letter
C,1,B,178,G,60,Backward,400.0,f,1,585.0,0,0,0,,2026-05-14T11:23:33.332Z,G_B,Letter
C,1,B,179,G,0,Backward,1000.0,f,1,526.0,0,0,0,,2026-05-14T11:23:39.002Z,G_B,Letter
C,1,B,183,J,0,Normal,400.0,j,1,404.0,0,0,0,,2026-05-14T11:24:01.746Z,J_B,Letter
C,1,B,184,G,180,Normal,100.0,f,0,1524.0,0,0,0,,2026-05-14T11:24:07.516Z,G_B,Letter
C,1,B,185,R,120,Backward,1000.0,f,1,569.0,0,0,0,,2026-05-14T11:24:13.251Z,R_B,Letter
C,1,B,186,R,60,Backward,1000.0,f,1,382.0,0,0,0,,2026-05-14T11:24:18.806Z,R_B,Letter
C,1,B,187,R,0,Normal,100.0,f,0,511.0,0,0,0,,2026-05-14T11:24:23.552Z,R_B,Letter
C,1,B,189,G,240,Normal,400.0,j,1,1021.0,0,0,0,,2026-05-14T11:24:34.178Z,G_B,Letter
C,1,B,190,R,180,Backward,400.0,f,1,1277.0,0,0,0,,2026-05-14T11:24:39.987Z,R_B,Letter
C,1,B,191,R,120,Backward,700.0,f,1,839.0,0,0,0,,2026-05-14T11:24:45.673Z,R_B,Letter
C,1,B,193,G,240,Normal,1000.0,j,1,807.0,0,0,0,,2026-05-14T11:24:56.742Z,G_B,Letter
C,1,B,195,R,240,Backward,700.0,f,1,1196.0,0,0,0,,2026-05-14T11:25:08.296Z,R_B,Letter
C,1,B,196,G,240,Normal,700.0,j,1,862.0,0,0,0,,2026-05-14T11:25:14.012Z,G_B,Letter
C,1,B,199,R,0,Normal,700.0,j,1,453.0,0,0,0,,2026-05-14T11:25:29.037Z,R_B,Letter
C,1,B,204,R,120,Backward,400.0,f,1,567.0,0,0,0,,2026-05-14T11:25:54.272Z,R_B,Letter
C,1,B,207,R,180,Backward,100.0,f,1,602.0,0,0,0,,2026-05-14T11:26:09.311Z,R_B,Letter
C,1,B,209,R,0,Backward,100.0,f,1,567.0,0,0,0,,2026-05-14T11:26:19.260Z,R_B,Letter
C,1,B,214,R,120,Normal,100.0,j,1,848.0,0,0,0,,2026-05-14T11:26:45.378Z,R_B,Letter
C,1,B,215,J,60,Normal,700.0,j,1,534.0,0,0,0,,2026-05-14T11:26:50.755Z,J_B,Letter
C,1,B,217,G,180,Normal,700.0,j,1,926.0,0,0,0,,2026-05-14T11:27:02.303Z,G_B,Letter
C,1,B,219,G,60,Backward,100.0,f,1,775.0,0,0,0,,2026-05-14T11:27:13.505Z,G_B,Letter
C,1,B,220,G,300,Normal,700.0,j,1,639.0,0,0,0,,2026-05-14T11:27:18.993Z,G_B,Letter
C,1,B,221,G,0,Normal,100.0,j,1,514.0,0,0,0,,2026-05-14T11:27:23.741Z,G_B,Letter
C,1,B,222,R,300,Normal,400.0,j,1,506.0,0,0,0,,2026-05-14T11:27:28.792Z,R_B,Letter
C,1,B,223,R,300,Normal,1000.0,j,1,435.0,0,0,0,,2026-05-14T11:27:34.368Z,R_B,Letter
C,1,B,225,G,0,Backward,700.0,f,1,425.0,0,0,0,,2026-05-14T11:27:45.256Z,G_B,Letter
C,1,B,226,R,240,Normal,700.0,j,1,621.0,0,0,0,,2026-05-14T11:27:50.729Z,R_B,Letter
C,1,B,227,J,120,Normal,1000.0,j,1,664.0,0,0,0,,2026-05-14T11:27:56.528Z,J_B,Letter
C,1,B,229,G,240,Backward,100.0,f,1,716.0,0,0,0,,2026-05-14T11:28:06.988Z,G_B,Letter
C,1,B,230,R,0,Normal,1000.0,j,1,1359.0,0,0,0,,2026-05-14T11:28:13.481Z,R_B,Letter
C,1,B,231,J,60,Backward,700.0,j,0,573.0,0,0,0,,2026-05-14T11:28:18.903Z,J_B,Letter
C,1,B,233,G,120,Normal,400.0,j,1,859.0,0,0,0,,2026-05-14T11:28:29.456Z,G_B,Letter
C,1,B,237,J,180,Backward,700.0,f,1,1584.0,0,0,0,,2026-05-14T11:28:51.625Z,J_B,Letter
C,1,B,238,J,120,Backward,100.0,f,1,677.0,0,0,0,,2026-05-14T11:28:56.549Z,J_B,Letter
C,1,B,240,J,180,Backward,400.0,f,1,745.0,0,0,0,,2026-05-14T11:29:07.198Z,J_B,Letter
C,1,B,244,J,60,Backward,1000.0,f,1,499.0,0,0,0,,2026-05-14T11:29:27.831Z,J_B,Letter
C,1,C,2,G,120,Backward,,f,1,326.0,0,0,0,,2026-05-14T11:34:48.149Z,G_C,Letter
C,1,C,5,J,120,Backward,,f,1,315.0,0,0,0,,2026-05-14T11:35:01.439Z,J_C,Letter
C,1,C,8,G,60,Normal,,j,1,210.0,0,0,0,,2026-05-14T11:35:14.402Z,G_C,Letter
C,1,C,17,G,180,Normal,,j,1,325.0,0,0,0,,2026-05-14T11:35:53.313Z,G_C,Letter
C,1,C,18,G,300,Normal,,j,0,319.30000000074506,1,1,1,,2026-05-14T11:35:57.364Z,G_C,Letter
C,1,C,21,G,120,Normal,,j,1,230.0,0,0,0,,2026-05-14T11:36:10.656Z,G_C,Letter
C,1,C,23,R,0,Backward,,f,1,327.0,0,0,0,,2026-05-14T11:36:19.386Z,R_C,Letter
C,1,C,26,R,60,Backward,,f,1,244.0,0,0,0,,2026-05-14T11:36:32.511Z,R_C,Letter
C,1,C,27,G,180,Backward,,f,1,267.0,0,0,0,,2026-05-14T11:36:36.916Z,G_C,Letter
C,1,C,30,J,180,Normal,,j,1,1028.0,0,0,0,,2026-05-14T11:36:50.667Z,J_C,Letter
C,1,C,31,R,180,Normal,,j,1,209.0,0,0,0,,2026-05-14T11:36:55.007Z,R_C,Letter
C,1,C,34,J,60,Backward,,f,1,128.0,1,0,0,,2026-05-14T11:37:08.092Z,J_C,Letter
C,1,C,38,J,240,Normal,,j,1,311.0,0,0,0,,2026-05-14T11:37:25.491Z,J_C,Letter
C,1,C,43,J,180,Backward,,f,1,395.0,0,0,0,,2026-05-14T11:37:47.243Z,J_C,Letter
C,1,C,44,G,0,Backward,,f,1,252.0,0,0,0,,2026-05-14T11:37:51.642Z,G_C,Letter
C,1,C,46,G,60,Backward,,f,1,237.0,0,0,0,,2026-05-14T11:38:00.384Z,G_C,Letter
C,1,C,47,G,0,Normal,,j,1,277.0,0,0,0,,2026-05-14T11:38:04.809Z,G_C,Letter
C,1,C,49,J,120,Normal,,j,1,159.0,0,0,0,,2026-05-14T11:38:13.283Z,J_C,Letter
C,1,C,50,J,60,Normal,,j,1,133.0,1,0,0,,2026-05-14T11:38:17.557Z,J_C,Letter
C,1,C,51,R,120,Backward,,f,1,187.0,0,0,0,,2026-05-14T11:38:21.894Z,R_C,Letter
C,1,C,52,J,0,Normal,,j,1,586.0,0,0,0,,2026-05-14T11:38:26.630Z,J_C,Letter
C,1,C,54,R,180,Backward,,f,1,259.0,0,0,0,,2026-05-14T11:38:35.280Z,R_C,Letter
C,1,C,55,G,240,Normal,,j,1,126.0,1,0,0,,2026-05-14T11:38:39.536Z,G_C,Letter
C,1,C,61,R,300,Normal,,j,1,150.0,0,0,0,,2026-05-14T11:39:05.341Z,R_C,Letter
C,1,C,63,R,300,Backward,,f,1,106.0,1,0,0,,2026-05-14T11:39:13.958Z,R_C,Letter
C,1,C,64,J,300,Normal,,j,0,372.7000000001863,1,1,1,,2026-05-14T11:39:18.058Z,J_C,Letter
C,1,C,66,J,0,Backward,,f,0,342.3999999994412,1,1,1,,2026-05-14T11:39:26.625Z,J_C,Letter
C,1,C,67,G,300,Backward,,f,1,241.0,0,0,0,,2026-05-14T11:39:31.092Z,G_C,Letter
C,1,C,70,J,240,Backward,,f,1,263.0,0,0,0,,2026-05-14T11:39:43.977Z,J_C,Letter
C,1,C,73,G,300,Normal,,j,1,255.0,0,0,0,,2026-05-14T11:39:57.259Z,G_C,Letter
C,1,C,75,J,300,Normal,,j,1,148.0,1,0,0,,2026-05-14T11:40:06.015Z,J_C,Letter
C,1,C,76,J,0,Backward,,f,1,162.0,0,0,0,,2026-05-14T11:40:10.329Z,J_C,Letter
