Subject_ID,Session,Block_Type,Trial_Num,Stimulus,Angle,Mirror_Condition,SOA,Response_Key,ACC,RT,Flag,Early_Key,Repeated_Trial,Practice_Round,Timestamp
W,1,N,1,7,240,Backward,,f,1,1676,0,0,0,,2026-05-10T12:30:46.464Z
W,1,N,2,2,120,Backward,,f,1,1979,0,0,0,,2026-05-10T12:30:50.176Z
W,1,N,3,G,180,Normal,,j,1,1547,0,0,0,,2026-05-10T12:30:53.456Z
W,1,N,4,G,60,Normal,,j,1,946,0,0,0,,2026-05-10T12:30:56.129Z
W,1,N,5,J,240,Backward,,f,1,1125,0,0,0,,2026-05-10T12:30:58.992Z
W,1,N,6,R,180,Normal,,j,1,1239,0,0,0,,2026-05-10T12:31:01.948Z
W,1,N,7,G,180,Backward,,j,0,1742,0,0,0,,2026-05-10T12:31:05.408Z
W,1,N,8,7,60,Backward,,f,1,1615,0,0,0,,2026-05-10T12:31:08.752Z
W,1,N,9,5,120,Backward,,f,1,1655,0,0,0,,2026-05-10T12:31:12.144Z
W,1,N,10,2,0,Backward,,f,1,897,0,0,0,,2026-05-10T12:31:14.772Z
W,1,N,11,G,300,Normal,,j,1,838,0,0,0,,2026-05-10T12:31:17.336Z
W,1,N,12,5,300,Normal,,j,1,646,0,0,0,,2026-05-10T12:31:19.704Z
W,1,N,13,G,60,Backward,,f,1,944,0,0,0,,2026-05-10T12:31:22.379Z
W,1,N,14,R,0,Backward,,f,1,716,0,0,0,,2026-05-10T12:31:24.833Z
W,1,N,15,R,60,Backward,,f,1,687,0,0,0,,2026-05-10T12:31:27.251Z
W,1,N,16,R,240,Backward,,f,1,1442,0,0,0,,2026-05-10T12:31:30.412Z
W,1,N,17,G,240,Normal,,j,1,1805,0,0,0,,2026-05-10T12:31:33.940Z
W,1,N,18,J,120,Normal,,j,1,1694,0,0,0,,2026-05-10T12:31:37.355Z
W,1,N,19,R,120,Backward,,,0,,1,0,0,,2026-05-10T12:31:42.096Z
W,1,N,20,7,300,Backward,,f,1,1388,0,0,0,,2026-05-10T12:31:45.211Z
W,1,N,21,7,300,Normal,,j,1,673,0,0,0,,2026-05-10T12:31:47.615Z
W,1,N,22,2,0,Normal,,j,1,573,0,0,0,,2026-05-10T12:31:49.908Z
W,1,N,23,G,120,Backward,,j,0,1435,0,0,0,,2026-05-10T12:31:53.071Z
W,1,N,24,2,60,Normal,,j,1,1605,0,0,0,,2026-05-10T12:31:56.399Z
W,1,N,25,R,240,Normal,,j,1,839,0,0,0,,2026-05-10T12:31:58.971Z
W,1,N,26,R,180,Backward,,j,0,1214,0,0,0,,2026-05-10T12:32:01.922Z
W,1,N,27,7,180,Normal,,j,1,1518,0,0,0,,2026-05-10T12:32:05.171Z
W,1,N,28,R,60,Normal,,j,1,653,0,0,0,,2026-05-10T12:32:07.546Z
W,1,N,29,J,60,Normal,,j,1,556,0,0,0,,2026-05-10T12:32:09.831Z
W,1,N,30,7,60,Normal,,j,1,687,0,0,0,,2026-05-10T12:32:12.250Z
W,1,N,31,7,0,Backward,,f,1,668,0,0,0,,2026-05-10T12:32:14.639Z
W,1,N,32,5,0,Normal,,j,1,542,0,0,0,,2026-05-10T12:32:16.903Z
W,1,N,33,7,180,Backward,,f,1,929,0,0,0,,2026-05-10T12:32:19.557Z
W,1,N,34,2,120,Normal,,j,1,771,0,0,0,,2026-05-10T12:32:22.047Z
W,1,N,35,5,60,Normal,,j,1,642,0,0,0,,2026-05-10T12:32:24.426Z
W,1,N,36,J,120,Backward,,f,1,879,0,0,0,,2026-05-10T12:32:27.054Z
W,1,N,37,J,180,Normal,,j,1,2240,0,0,0,,2026-05-10T12:32:31.023Z
W,1,N,38,2,180,Backward,,f,1,1992,0,0,0,,2026-05-10T12:32:34.739Z
W,1,N,39,J,0,Normal,,j,1,724,0,0,0,,2026-05-10T12:32:37.203Z
W,1,N,40,2,180,Normal,,j,1,2063,0,0,0,,2026-05-10T12:32:41.007Z
W,1,N,41,2,300,Normal,,j,1,970,0,0,0,,2026-05-10T12:32:43.707Z
W,1,N,42,G,0,Backward,,f,1,1175,0,0,0,,2026-05-10T12:32:46.599Z
W,1,N,43,5,60,Backward,,f,1,1030,0,0,0,,2026-05-10T12:32:49.345Z
W,1,N,44,2,240,Backward,,f,1,1943,0,0,0,,2026-05-10T12:32:53.032Z
W,1,N,45,2,300,Backward,,f,1,651,0,0,0,,2026-05-10T12:32:55.398Z
W,1,N,46,J,0,Backward,,j,0,743,0,0,0,,2026-05-10T12:32:57.859Z
W,1,N,47,5,240,Backward,,f,1,1888,0,0,0,,2026-05-10T12:33:01.478Z
W,1,N,48,2,60,Backward,,f,1,952,0,0,0,,2026-05-10T12:33:04.145Z
W,1,N,49,J,300,Normal,,j,1,882,0,0,0,,2026-05-10T12:33:06.754Z
W,1,N,50,5,0,Backward,,f,1,660,0,0,0,,2026-05-10T12:33:09.131Z
W,1,N,51,5,180,Normal,,j,1,1312,0,0,0,,2026-05-10T12:33:12.166Z
W,1,N,52,5,240,Normal,,j,1,879,0,0,0,,2026-05-10T12:33:14.783Z
W,1,N,53,5,120,Normal,,f,0,812,0,0,0,,2026-05-10T12:33:17.321Z
W,1,N,54,R,0,Normal,,j,1,607,0,0,0,,2026-05-10T12:33:19.663Z
W,1,N,55,J,300,Backward,,f,1,887,0,0,0,,2026-05-10T12:33:22.277Z
W,1,N,56,G,120,Normal,,j,1,1469,0,0,0,,2026-05-10T12:33:25.464Z
W,1,N,57,5,300,Backward,,f,1,870,0,0,0,,2026-05-10T12:33:28.046Z
W,1,N,58,J,60,Backward,,f,1,879,0,0,0,,2026-05-10T12:33:30.644Z
W,1,N,59,R,300,Backward,,f,1,784,0,0,0,,2026-05-10T12:33:33.152Z
W,1,N,60,5,180,Backward,,f,1,721,0,0,0,,2026-05-10T12:33:35.589Z
W,1,N,61,G,240,Backward,,f,1,1644,0,0,0,,2026-05-10T12:33:38.966Z
W,1,N,62,G,0,Normal,,j,1,716,0,0,0,,2026-05-10T12:33:41.422Z
W,1,N,63,7,120,Backward,,f,1,1005,0,0,0,,2026-05-10T12:33:44.155Z
W,1,N,64,J,180,Backward,,f,1,1228,0,0,0,,2026-05-10T12:33:47.115Z
W,1,N,65,7,240,Normal,,j,1,768,0,0,0,,2026-05-10T12:33:49.593Z
W,1,N,66,7,120,Normal,,j,1,718,0,0,0,,2026-05-10T12:33:52.026Z
W,1,N,67,7,0,Normal,,j,1,597,0,0,0,,2026-05-10T12:33:54.345Z
W,1,N,68,R,300,Normal,,j,1,670,0,0,0,,2026-05-10T12:33:56.730Z
W,1,N,69,2,240,Normal,,j,1,841,0,0,0,,2026-05-10T12:33:59.294Z
W,1,N,70,R,120,Normal,,j,1,1153,0,0,0,,2026-05-10T12:34:02.172Z
W,1,N,71,J,240,Normal,,j,1,1455,0,0,0,,2026-05-10T12:34:05.349Z
W,1,N,72,G,300,Backward,,f,1,1185,0,0,0,,2026-05-10T12:34:08.258Z
W,1,I,1,5,60,Backward,,f,1,845,0,0,0,,2026-05-10T12:34:42.791Z
W,1,I,2,2,0,Backward,,f,1,861,0,0,0,,2026-05-10T12:34:47.805Z
W,1,I,3,5,240,Normal,,j,1,856,0,0,0,,2026-05-10T12:34:52.810Z
W,1,I,4,G,240,Normal,,j,1,1609,0,0,0,,2026-05-10T12:34:58.558Z
W,1,I,5,5,240,Backward,,f,1,1328,0,0,0,,2026-05-10T12:35:04.034Z
W,1,I,6,J,0,Backward,,f,1,810,0,0,0,,2026-05-10T12:35:08.985Z
W,1,I,7,7,120,Backward,,f,1,946,0,0,0,,2026-05-10T12:35:14.078Z
W,1,I,8,2,60,Normal,,j,1,806,0,0,0,,2026-05-10T12:35:19.038Z
W,1,I,9,5,180,Backward,,f,1,2142,0,0,0,,2026-05-10T12:35:25.335Z
W,1,I,10,5,180,Normal,,j,1,2230,0,0,0,,2026-05-10T12:35:31.715Z
W,1,I,11,5,0,Normal,,j,1,1068,0,0,0,,2026-05-10T12:35:36.939Z
W,1,I,12,G,120,Backward,,f,1,920,0,0,0,,2026-05-10T12:35:41.994Z
W,1,I,13,R,240,Normal,,j,1,1371,0,0,0,,2026-05-10T12:35:47.512Z
W,1,I,14,7,120,Normal,,j,1,840,0,0,0,,2026-05-10T12:35:52.502Z
W,1,I,15,7,180,Normal,,j,1,1393,0,0,0,,2026-05-10T12:35:58.055Z
W,1,I,16,5,0,Backward,,f,1,1044,0,0,0,,2026-05-10T12:36:03.238Z
W,1,I,17,J,120,Backward,,f,1,2044,0,0,0,,2026-05-10T12:36:09.407Z
W,1,I,18,G,0,Backward,,f,1,965,0,0,0,,2026-05-10T12:36:14.534Z
W,1,I,19,R,180,Backward,,j,0,1831,0,0,0,,2026-05-10T12:36:20.531Z
W,1,I,20,G,0,Normal,,j,1,609,0,0,0,,2026-05-10T12:36:25.295Z
W,1,I,21,7,180,Backward,,f,1,974,0,0,0,,2026-05-10T12:36:30.416Z
W,1,I,22,2,120,Backward,,f,1,877,0,0,0,,2026-05-10T12:36:35.422Z
W,1,I,23,5,300,Backward,,f,1,755,0,0,0,,2026-05-10T12:36:40.302Z
W,1,I,24,G,60,Normal,,j,1,755,0,0,0,,2026-05-10T12:36:45.215Z
W,1,I,25,J,0,Normal,,j,1,649,0,0,0,,2026-05-10T12:36:50.015Z
W,1,I,26,7,0,Backward,,f,1,629,0,0,0,,2026-05-10T12:36:54.780Z
W,1,I,27,G,240,Backward,,f,1,703,0,0,0,,2026-05-10T12:36:59.626Z
W,1,I,28,G,300,Normal,,j,1,1076,0,0,0,,2026-05-10T12:37:04.853Z
W,1,I,29,2,240,Normal,,j,1,1194,0,0,0,,2026-05-10T12:37:10.216Z
W,1,I,30,2,240,Backward,,f,1,878,0,0,0,,2026-05-10T12:37:15.241Z
W,1,I,31,7,60,Normal,,j,1,688,0,0,0,,2026-05-10T12:37:20.069Z
W,1,I,32,2,120,Normal,,j,1,808,0,0,0,,2026-05-10T12:37:25.052Z
W,1,I,33,5,300,Normal,,j,1,547,0,0,0,,2026-05-10T12:37:29.757Z
W,1,I,34,G,180,Backward,,j,0,2574,0,0,0,,2026-05-10T12:37:36.490Z
W,1,I,35,2,180,Normal,,j,1,1197,0,0,0,,2026-05-10T12:37:41.818Z
W,1,I,36,7,300,Normal,,j,1,813,0,0,0,,2026-05-10T12:37:46.769Z
W,1,I,37,G,60,Backward,,f,1,1551,0,0,0,,2026-05-10T12:37:52.451Z
W,1,I,38,2,180,Backward,,f,1,1293,0,0,0,,2026-05-10T12:37:57.893Z
W,1,I,39,G,300,Backward,,f,1,1475,0,0,0,,2026-05-10T12:38:03.502Z
W,1,I,40,5,60,Normal,,j,1,761,0,0,0,,2026-05-10T12:38:08.407Z
W,1,I,41,R,0,Normal,,j,1,554,0,0,0,,2026-05-10T12:38:13.110Z
W,1,I,42,R,120,Backward,,f,1,1028,0,0,0,,2026-05-10T12:38:18.300Z
W,1,I,43,7,300,Backward,,f,1,909,0,0,0,,2026-05-10T12:38:23.361Z
W,1,I,44,J,180,Normal,,j,1,2419,0,0,0,,2026-05-10T12:38:29.926Z
W,1,I,45,5,120,Normal,,j,1,655,0,0,0,,2026-05-10T12:38:34.734Z
W,1,I,46,J,60,Normal,,j,1,669,0,0,0,,2026-05-10T12:38:39.532Z
W,1,I,47,R,240,Backward,,f,1,1308,0,0,0,,2026-05-10T12:38:44.990Z
W,1,I,48,J,180,Backward,,f,1,1295,0,0,0,,2026-05-10T12:38:50.434Z
W,1,I,49,2,60,Backward,,f,1,765,0,0,0,,2026-05-10T12:38:55.346Z
W,1,I,50,R,60,Normal,,j,1,633,0,0,0,,2026-05-10T12:39:00.129Z
W,1,I,51,R,180,Normal,,j,1,2159,0,0,0,,2026-05-10T12:39:06.442Z
W,1,I,52,R,300,Backward,,f,1,931,0,0,0,,2026-05-10T12:39:11.544Z
W,1,I,53,G,180,Normal,,j,1,2546,0,0,0,,2026-05-10T12:39:18.239Z
W,1,I,54,J,240,Backward,,f,1,1665,0,0,0,,2026-05-10T12:39:24.054Z
W,1,I,55,J,300,Normal,,j,1,729,0,0,0,,2026-05-10T12:39:28.943Z
W,1,I,56,R,60,Backward,,f,1,1584,0,0,0,,2026-05-10T12:39:34.675Z
W,1,I,57,G,120,Normal,,j,1,1546,0,0,0,,2026-05-10T12:39:40.370Z
W,1,I,58,R,120,Normal,,j,1,831,0,0,0,,2026-05-10T12:39:45.348Z
W,1,I,59,J,300,Backward,,f,1,1037,0,0,0,,2026-05-10T12:39:50.523Z
W,1,I,60,R,0,Backward,,f,1,894,0,0,0,,2026-05-10T12:39:55.550Z
W,1,I,61,7,240,Backward,,f,1,1163,0,0,0,,2026-05-10T12:40:00.870Z
W,1,I,62,7,0,Normal,,j,1,778,0,0,0,,2026-05-10T12:40:05.782Z
W,1,I,63,R,300,Normal,,j,1,763,0,0,0,,2026-05-10T12:40:10.699Z
W,1,I,64,7,240,Normal,,j,1,890,0,0,0,,2026-05-10T12:40:15.739Z
W,1,I,65,2,300,Normal,,j,1,731,0,0,0,,2026-05-10T12:40:20.618Z
W,1,I,66,5,120,Backward,,f,1,985,0,0,0,,2026-05-10T12:40:25.737Z
W,1,I,67,2,0,Normal,,j,1,694,0,0,0,,2026-05-10T12:40:30.562Z
W,1,I,68,2,300,Backward,,f,1,1610,0,0,0,,2026-05-10T12:40:36.312Z
W,1,I,69,7,60,Backward,,f,1,744,0,0,0,,2026-05-10T12:40:41.203Z
W,1,I,70,J,60,Backward,,j,0,1217,0,0,0,,2026-05-10T12:40:46.572Z
W,1,I,71,J,240,Normal,,j,1,1073,0,0,0,,2026-05-10T12:40:51.794Z
W,1,I,72,J,120,Normal,,j,1,1005,0,0,0,,2026-05-10T12:40:56.961Z
W,1,O,1,7,60,Backward,,f,1,1373,0,0,0,,2026-05-10T12:58:31.078Z
W,1,O,2,7,60,Normal,,j,1,708,0,0,0,,2026-05-10T12:58:33.926Z
W,1,O,3,R,0,Normal,,j,1,629,0,0,0,,2026-05-10T12:58:36.693Z
W,1,O,4,7,300,Normal,,j,1,586,0,0,0,,2026-05-10T12:58:39.409Z
W,1,O,5,7,240,Backward,,f,1,977,0,0,0,,2026-05-10T12:58:42.522Z
W,1,O,6,G,0,Normal,,j,1,980,0,0,0,,2026-05-10T12:58:45.643Z
W,1,O,7,R,0,Backward,,f,1,1013,0,0,0,,2026-05-10T12:58:48.781Z
W,1,O,8,7,180,Normal,,j,1,2391,0,0,0,,2026-05-10T12:58:53.318Z
W,1,O,9,J,240,Backward,,f,1,1050,0,0,0,,2026-05-10T12:58:56.517Z
W,1,O,10,G,180,Backward,,f,1,2440,0,0,0,,2026-05-10T12:59:01.094Z
W,1,O,11,G,60,Backward,,f,1,892,0,0,0,,2026-05-10T12:59:04.115Z
W,1,O,12,J,120,Backward,,f,1,1439,0,0,0,,2026-05-10T12:59:07.690Z
W,1,O,13,7,120,Normal,,j,1,725,0,0,0,,2026-05-10T12:59:10.549Z
W,1,O,14,J,180,Normal,,j,1,2381,0,0,0,,2026-05-10T12:59:15.086Z
W,1,O,15,J,300,Normal,,j,1,1102,0,0,0,,2026-05-10T12:59:18.314Z
W,1,O,16,G,0,Backward,,f,1,1223,0,0,0,,2026-05-10T12:59:21.658Z
W,1,O,17,G,120,Normal,,j,1,1027,0,0,0,,2026-05-10T12:59:24.821Z
W,1,O,18,2,300,Backward,,f,1,1370,0,0,0,,2026-05-10T12:59:28.323Z
W,1,O,19,G,120,Backward,,f,1,1345,0,0,0,,2026-05-10T12:59:31.807Z
W,1,O,20,7,180,Backward,,f,1,2007,0,0,0,,2026-05-10T12:59:35.950Z
W,1,O,21,7,240,Normal,,j,1,760,0,0,0,,2026-05-10T12:59:38.850Z
W,1,O,22,5,0,Backward,,f,1,790,0,0,0,,2026-05-10T12:59:41.778Z
W,1,O,23,R,240,Normal,,j,1,703,0,0,0,,2026-05-10T12:59:44.606Z
W,1,O,24,G,240,Backward,,f,1,1006,0,0,0,,2026-05-10T12:59:47.742Z
W,1,O,25,2,120,Normal,,j,1,855,0,0,0,,2026-05-10T12:59:50.743Z
W,1,O,26,2,240,Normal,,j,1,779,0,0,0,,2026-05-10T12:59:53.672Z
W,1,O,27,5,120,Normal,,j,1,1062,0,0,0,,2026-05-10T12:59:56.881Z
W,1,O,28,R,300,Normal,,j,1,707,0,0,0,,2026-05-10T12:59:59.724Z
W,1,O,29,R,240,Backward,,f,1,1020,0,0,0,,2026-05-10T13:00:02.890Z
W,1,O,30,J,60,Backward,,f,1,851,0,0,0,,2026-05-10T13:00:05.879Z
W,1,O,31,2,240,Backward,,f,1,1157,0,0,0,,2026-05-10T13:00:09.176Z
W,1,O,32,J,180,Backward,,f,1,1755,0,0,0,,2026-05-10T13:00:13.050Z
W,1,O,33,J,300,Backward,,f,1,795,0,0,0,,2026-05-10T13:00:15.989Z
W,1,O,34,5,180,Normal,,j,1,884,0,0,0,,2026-05-10T13:00:18.998Z
W,1,O,35,J,60,Normal,,j,1,808,0,0,0,,2026-05-10T13:00:21.955Z
W,1,O,36,2,60,Backward,,f,1,956,0,0,0,,2026-05-10T13:00:25.046Z
W,1,O,37,7,0,Normal,,j,1,637,0,0,0,,2026-05-10T13:00:27.810Z
W,1,O,38,5,240,Normal,,j,1,640,0,0,0,,2026-05-10T13:00:30.589Z
W,1,O,39,J,240,Normal,,j,1,1841,0,0,0,,2026-05-10T13:00:34.570Z
W,1,O,40,G,240,Normal,,j,1,827,0,0,0,,2026-05-10T13:00:37.521Z
W,1,O,41,2,120,Backward,,f,1,977,0,0,0,,2026-05-10T13:00:40.633Z
W,1,O,42,R,180,Normal,,j,1,1615,0,0,0,,2026-05-10T13:00:44.395Z
W,1,O,43,G,60,Normal,,j,1,693,0,0,0,,2026-05-10T13:00:47.218Z
W,1,O,44,5,60,Backward,,f,1,768,0,0,0,,2026-05-10T13:00:50.118Z
W,1,O,45,R,300,Backward,,f,1,993,0,0,0,,2026-05-10T13:00:53.245Z
W,1,O,46,5,0,Normal,,j,1,652,0,0,0,,2026-05-10T13:00:56.029Z
W,1,O,47,2,300,Normal,,j,1,655,0,0,0,,2026-05-10T13:00:58.835Z
W,1,O,48,7,120,Backward,,f,1,968,0,0,0,,2026-05-10T13:01:01.948Z
W,1,O,49,G,300,Backward,,f,1,776,0,0,0,,2026-05-10T13:01:04.881Z
W,1,O,50,5,300,Backward,,f,1,813,0,0,0,,2026-05-10T13:01:07.809Z
W,1,O,51,G,180,Normal,,j,1,1322,0,0,0,,2026-05-10T13:01:11.274Z
W,1,O,52,J,120,Normal,,j,1,774,0,0,0,,2026-05-10T13:01:14.182Z
W,1,O,53,R,180,Backward,,j,0,2726,0,0,0,,2026-05-10T13:01:19.035Z
W,1,O,54,5,180,Backward,,f,1,1406,0,0,0,,2026-05-10T13:01:22.581Z
W,1,O,55,2,0,Backward,,f,1,760,0,0,0,,2026-05-10T13:01:25.474Z
W,1,O,56,R,120,Normal,,j,1,810,0,0,0,,2026-05-10T13:01:28.420Z
W,1,O,57,7,300,Backward,,f,1,700,0,0,0,,2026-05-10T13:01:31.257Z
W,1,O,58,5,120,Backward,,f,1,943,0,0,0,,2026-05-10T13:01:34.337Z
W,1,O,59,5,60,Normal,,j,1,532,0,0,0,,2026-05-10T13:01:36.993Z
W,1,O,60,7,0,Backward,,f,1,665,0,0,0,,2026-05-10T13:01:39.792Z
W,1,O,61,2,0,Normal,,j,1,592,0,0,0,,2026-05-10T13:01:42.519Z
W,1,O,62,J,0,Backward,,f,1,826,0,0,0,,2026-05-10T13:01:45.474Z
W,1,O,63,R,60,Backward,,f,1,763,0,0,0,,2026-05-10T13:01:48.373Z
W,1,O,64,2,60,Normal,,j,1,821,0,0,0,,2026-05-10T13:01:51.333Z
W,1,O,65,5,240,Backward,,f,1,1084,0,0,0,,2026-05-10T13:01:54.546Z
W,1,O,66,R,120,Backward,,f,1,1062,0,0,0,,2026-05-10T13:01:57.752Z
W,1,O,67,R,60,Normal,,j,1,677,0,0,0,,2026-05-10T13:02:00.557Z
W,1,O,68,2,180,Backward,,f,1,2613,0,0,0,,2026-05-10T13:02:05.292Z
W,1,O,69,5,300,Normal,,j,1,768,0,0,0,,2026-05-10T13:02:08.204Z
W,1,O,70,J,0,Normal,,j,1,732,0,0,0,,2026-05-10T13:02:11.086Z
W,1,O,71,2,180,Normal,,j,1,2178,0,0,0,,2026-05-10T13:02:15.400Z
W,1,O,72,G,300,Normal,,j,1,721,0,0,0,,2026-05-10T13:02:18.244Z
L,1,N,1,J,180,Backward,,f,1,1230,0,0,0,,2026-05-12T10:03:18.803Z
L,1,N,2,5,240,Backward,,f,1,871,0,0,0,,2026-05-12T10:03:21.412Z
L,1,N,3,J,240,Backward,,f,1,1434,0,0,0,,2026-05-12T10:03:24.573Z
L,1,N,4,2,180,Normal,,j,1,990,0,0,0,,2026-05-12T10:03:27.297Z
L,1,N,5,2,60,Normal,,j,1,526,0,0,0,,2026-05-12T10:03:29.549Z
L,1,N,6,7,120,Normal,,j,1,571,0,0,0,,2026-05-12T10:03:31.845Z
L,1,N,7,5,120,Normal,,j,1,1329,0,0,0,,2026-05-12T10:03:34.905Z
L,1,N,8,R,60,Normal,,j,1,636,0,0,0,,2026-05-12T10:03:37.260Z
L,1,N,9,R,0,Backward,,f,1,634,0,0,0,,2026-05-12T10:03:39.627Z
L,1,N,10,R,60,Backward,,f,1,617,0,0,0,,2026-05-12T10:03:41.976Z
L,1,N,11,7,60,Backward,,f,1,1004,0,0,0,,2026-05-12T10:03:44.713Z
L,1,N,12,5,60,Backward,,f,1,1083,0,0,0,,2026-05-12T10:03:47.526Z
L,1,N,13,J,300,Backward,,f,1,1555,0,0,0,,2026-05-12T10:03:50.797Z
L,1,N,14,R,240,Normal,,j,1,1145,0,0,0,,2026-05-12T10:03:53.671Z
L,1,N,15,G,0,Backward,,f,1,664,0,0,0,,2026-05-12T10:03:56.055Z
L,1,N,16,2,300,Normal,,j,1,477,0,0,0,,2026-05-12T10:03:58.251Z
L,1,N,17,J,120,Normal,,j,1,651,0,0,0,,2026-05-12T10:04:00.625Z
L,1,N,18,2,120,Backward,,f,1,543,0,0,0,,2026-05-12T10:04:02.885Z
L,1,N,19,7,60,Normal,,j,1,489,0,0,0,,2026-05-12T10:04:05.097Z
L,1,N,20,G,180,Backward,,f,1,469,0,0,0,,2026-05-12T10:04:07.295Z
L,1,N,21,J,60,Backward,,f,1,865,0,0,0,,2026-05-12T10:04:09.888Z
L,1,N,22,2,0,Normal,,j,1,434,0,0,0,,2026-05-12T10:04:12.057Z
L,1,N,23,J,300,Normal,,j,1,580,0,0,0,,2026-05-12T10:04:14.354Z
L,1,N,24,7,240,Backward,,f,1,744,0,0,0,,2026-05-12T10:04:16.818Z
L,1,N,25,G,240,Normal,,f,0,519,0,0,0,,2026-05-12T10:04:19.060Z
L,1,N,26,2,60,Backward,,f,1,912,0,0,0,,2026-05-12T10:04:21.705Z
L,1,N,27,G,60,Backward,,f,1,1360,0,0,0,,2026-05-12T10:04:24.785Z
L,1,N,28,G,240,Backward,,f,1,1599,0,0,0,,2026-05-12T10:04:28.107Z
L,1,N,29,2,120,Normal,,j,1,734,0,0,0,,2026-05-12T10:04:30.559Z
L,1,N,30,2,240,Backward,,f,1,1052,0,0,0,,2026-05-12T10:04:33.343Z
L,1,N,31,7,300,Normal,,j,1,532,0,0,0,,2026-05-12T10:04:35.590Z
L,1,N,32,7,0,Normal,,j,1,2017,0,0,0,,2026-05-12T10:04:39.323Z
L,1,N,33,5,300,Normal,,j,1,1024,0,0,0,,2026-05-12T10:04:42.062Z
L,1,N,34,R,300,Backward,,f,1,632,0,0,0,,2026-05-12T10:04:44.423Z
L,1,N,35,J,0,Normal,,j,1,608,0,0,0,,2026-05-12T10:04:46.767Z
L,1,N,36,G,60,Normal,,j,1,1103,0,0,0,,2026-05-12T10:04:49.593Z
L,1,N,37,2,0,Backward,,f,1,650,0,0,0,,2026-05-12T10:04:51.974Z
L,1,N,38,R,180,Normal,,f,0,746,0,0,0,,2026-05-12T10:04:54.436Z
L,1,N,39,R,120,Backward,,f,1,1098,0,0,0,,2026-05-12T10:04:57.271Z
L,1,N,40,G,180,Normal,,j,1,1763,0,0,0,,2026-05-12T10:05:00.754Z
L,1,N,41,5,180,Backward,,f,1,1586,0,0,0,,2026-05-12T10:05:04.076Z
L,1,N,42,G,300,Backward,,f,1,1688,0,0,0,,2026-05-12T10:05:07.479Z
L,1,N,43,7,240,Normal,,j,1,681,0,0,0,,2026-05-12T10:05:09.887Z
L,1,N,44,J,120,Backward,,j,0,1372,0,0,0,,2026-05-12T10:05:12.979Z
L,1,N,45,R,0,Normal,,j,1,1223,0,0,0,,2026-05-12T10:05:15.930Z
L,1,N,46,G,0,Normal,,j,1,699,0,0,0,,2026-05-12T10:05:18.354Z
L,1,N,47,5,120,Backward,,f,1,900,0,0,0,,2026-05-12T10:05:20.990Z
L,1,N,48,R,300,Normal,,j,1,601,0,0,0,,2026-05-12T10:05:23.323Z
L,1,N,49,J,0,Backward,,f,1,2185,0,0,0,,2026-05-12T10:05:27.244Z
L,1,N,50,5,0,Normal,,j,1,555,0,0,0,,2026-05-12T10:05:29.529Z
L,1,N,51,R,120,Normal,,j,1,770,0,0,0,,2026-05-12T10:05:32.026Z
L,1,N,52,R,180,Backward,,f,1,1376,0,0,0,,2026-05-12T10:05:35.134Z
L,1,N,53,G,120,Normal,,j,1,893,0,0,0,,2026-05-12T10:05:37.751Z
L,1,N,54,2,240,Normal,,j,1,664,0,0,0,,2026-05-12T10:05:40.139Z
L,1,N,55,7,120,Backward,,f,1,1068,0,0,0,,2026-05-12T10:05:42.943Z
L,1,N,56,2,300,Backward,,f,1,1090,0,0,0,,2026-05-12T10:05:45.764Z
L,1,N,57,5,60,Normal,,j,1,562,0,0,0,,2026-05-12T10:05:48.041Z
L,1,N,58,J,60,Normal,,j,1,1108,0,0,0,,2026-05-12T10:05:50.884Z
L,1,N,59,J,180,Normal,,j,1,947,0,0,0,,2026-05-12T10:05:53.554Z
L,1,N,60,5,0,Backward,,f,1,675,0,0,0,,2026-05-12T10:05:55.949Z
L,1,N,61,5,240,Normal,,j,1,758,0,0,0,,2026-05-12T10:05:58.431Z
L,1,N,62,R,240,Backward,,f,1,707,0,0,0,,2026-05-12T10:06:00.863Z
L,1,N,63,2,180,Backward,,f,1,1111,0,0,0,,2026-05-12T10:06:03.702Z
L,1,N,64,7,0,Backward,,f,1,739,0,0,0,,2026-05-12T10:06:06.163Z
L,1,N,65,5,180,Normal,,j,1,853,0,0,0,,2026-05-12T10:06:08.744Z
L,1,N,66,7,300,Backward,,f,1,703,0,0,0,,2026-05-12T10:06:11.176Z
L,1,N,67,G,300,Normal,,j,1,821,0,0,0,,2026-05-12T10:06:13.727Z
L,1,N,68,5,300,Backward,,f,1,914,0,0,0,,2026-05-12T10:06:16.372Z
L,1,N,69,7,180,Normal,,j,1,1134,0,0,0,,2026-05-12T10:06:19.240Z
L,1,N,70,7,180,Backward,,f,1,1171,0,0,0,,2026-05-12T10:06:22.129Z
L,1,N,71,J,240,Normal,,j,1,697,0,0,0,,2026-05-12T10:06:24.554Z
L,1,N,72,G,120,Backward,,f,1,1786,0,0,0,,2026-05-12T10:06:28.075Z
L,1,I,1,5,0,Backward,,f,1,687,0,0,0,,2026-05-12T10:06:38.602Z
L,1,I,2,5,180,Normal,,j,0,571.8999999761581,1,1,1,,2026-05-12T10:06:40.913Z
L,1,I,3,G,180,Normal,,j,1,1171,0,0,0,,2026-05-12T10:06:47.451Z
L,1,I,4,7,240,Normal,,j,1,504,0,0,0,,2026-05-12T10:06:52.102Z
L,1,I,5,R,60,Backward,,f,1,594,0,0,0,,2026-05-12T10:06:56.825Z
L,1,I,6,R,120,Backward,,f,1,662,0,0,0,,2026-05-12T10:07:01.627Z
L,1,I,7,2,120,Normal,,j,1,672,0,0,0,,2026-05-12T10:07:06.455Z
L,1,I,8,J,180,Backward,,j,0,686.7000000476837,1,1,1,,2026-05-12T10:07:08.876Z
L,1,I,9,7,300,Backward,,f,1,531,0,0,0,,2026-05-12T10:07:14.746Z
L,1,I,10,R,0,Backward,,f,1,537,0,0,0,,2026-05-12T10:07:19.418Z
L,1,I,11,R,0,Normal,,f,0,419,0,0,0,,2026-05-12T10:07:23.985Z
L,1,I,12,J,60,Normal,,j,1,565,0,0,0,,2026-05-12T10:07:28.698Z
L,1,I,13,J,300,Normal,,j,1,587,0,0,0,,2026-05-12T10:07:33.451Z
L,1,I,14,R,120,Normal,,j,1,1201,0,0,0,,2026-05-12T10:07:38.800Z
L,1,I,15,5,300,Normal,,j,1,608,0,0,0,,2026-05-12T10:07:43.556Z
L,1,I,16,G,240,Normal,,j,1,1197,0,0,0,,2026-05-12T10:07:48.895Z
L,1,I,17,5,180,Backward,,f,1,1348,0,0,0,,2026-05-12T10:07:54.413Z
L,1,I,18,G,120,Normal,,j,1,1326,0,0,0,,2026-05-12T10:07:59.874Z
L,1,I,19,5,300,Backward,,f,1,1035,0,0,0,,2026-05-12T10:08:05.066Z
L,1,I,20,J,300,Backward,,f,1,864,0,0,0,,2026-05-12T10:08:10.078Z
L,1,I,21,J,240,Backward,,f,1,962,0,0,0,,2026-05-12T10:08:15.193Z
L,1,I,22,G,300,Normal,,j,1,811,0,0,0,,2026-05-12T10:08:20.160Z
L,1,I,23,R,240,Normal,,j,1,718,0,0,0,,2026-05-12T10:08:25.035Z
L,1,I,24,R,300,Normal,,j,1,502,0,0,0,,2026-05-12T10:08:29.680Z
L,1,I,25,G,240,Backward,,f,1,802,0,0,0,,2026-05-12T10:08:34.633Z
L,1,I,26,2,180,Normal,,j,1,999,0,0,0,,2026-05-12T10:08:39.796Z
L,1,I,27,R,300,Backward,,f,1,638,0,0,0,,2026-05-12T10:08:44.604Z
L,1,I,28,G,0,Normal,,j,1,498,0,0,0,,2026-05-12T10:08:49.250Z
L,1,I,29,J,180,Normal,,j,1,1069,0,0,0,,2026-05-12T10:08:54.451Z
L,1,I,30,J,120,Backward,,f,1,892,0,0,0,,2026-05-12T10:08:59.473Z
L,1,I,31,7,0,Backward,,f,0,3.900000035762787,1,1,1,,2026-05-12T10:09:00.480Z
L,1,I,32,2,240,Backward,,f,0,17.80000001192093,1,1,1,,2026-05-12T10:09:02.008Z
L,1,I,33,R,180,Backward,,f,1,1459,0,0,0,,2026-05-12T10:09:08.108Z
L,1,I,34,2,180,Backward,,f,1,1930,0,0,0,,2026-05-12T10:09:14.179Z
L,1,I,35,5,0,Normal,,j,1,598,0,0,0,,2026-05-12T10:09:18.915Z
L,1,I,36,5,240,Normal,,j,1,1285,0,0,0,,2026-05-12T10:09:24.335Z
L,1,I,37,5,120,Backward,,f,1,1081,0,0,0,,2026-05-12T10:09:29.543Z
L,1,I,38,J,120,Normal,,j,1,642,0,0,0,,2026-05-12T10:09:34.341Z
L,1,I,39,G,300,Backward,,f,1,1072,0,0,0,,2026-05-12T10:09:39.538Z
L,1,I,40,J,60,Backward,,f,1,635,0,0,0,,2026-05-12T10:09:44.334Z
L,1,I,41,R,180,Normal,,j,1,1309,0,0,0,,2026-05-12T10:09:49.775Z
L,1,I,42,R,240,Backward,,f,1,630,0,0,0,,2026-05-12T10:09:54.527Z
L,1,I,43,2,0,Backward,,f,1,549,0,0,0,,2026-05-12T10:09:59.231Z
L,1,I,44,7,60,Backward,,f,1,770,0,0,0,,2026-05-12T10:10:04.152Z
L,1,I,45,J,0,Backward,,f,1,609,0,0,0,,2026-05-12T10:10:08.908Z
L,1,I,46,G,120,Backward,,f,1,1208,0,0,0,,2026-05-12T10:10:14.259Z
L,1,I,47,7,180,Normal,,f,0,543,0,0,0,,2026-05-12T10:10:18.958Z
L,1,I,48,2,300,Backward,,f,1,916,0,0,0,,2026-05-12T10:10:24.031Z
L,1,I,49,G,60,Backward,,f,1,670,0,0,0,,2026-05-12T10:10:28.851Z
L,1,I,50,5,120,Normal,,j,1,802,0,0,0,,2026-05-12T10:10:33.785Z
L,1,I,51,7,180,Backward,,f,1,1012,0,0,0,,2026-05-12T10:10:38.940Z
L,1,I,52,5,60,Normal,,j,1,560,0,0,0,,2026-05-12T10:10:43.655Z
L,1,I,53,7,240,Backward,,f,1,955,0,0,0,,2026-05-12T10:10:48.749Z
L,1,I,54,2,0,Normal,,j,1,517,0,0,0,,2026-05-12T10:10:53.416Z
L,1,I,55,7,60,Normal,,j,1,460,0,0,0,,2026-05-12T10:10:58.041Z
L,1,I,56,2,60,Backward,,f,1,865,0,0,0,,2026-05-12T10:11:03.063Z
L,1,I,57,G,180,Backward,,f,1,1100,0,0,0,,2026-05-12T10:11:08.312Z
L,1,I,58,2,240,Normal,,j,1,700,0,0,0,,2026-05-12T10:11:13.164Z
L,1,I,59,5,60,Backward,,f,1,984,0,0,0,,2026-05-12T10:11:18.279Z
L,1,I,60,2,60,Normal,,j,1,1435,0,0,0,,2026-05-12T10:11:23.848Z
L,1,I,61,2,120,Backward,,f,1,596,0,0,0,,2026-05-12T10:11:28.586Z
L,1,I,62,7,120,Backward,,f,1,635,0,0,0,,2026-05-12T10:11:33.349Z
L,1,I,63,G,60,Normal,,j,1,687,0,0,0,,2026-05-12T10:11:38.169Z
L,1,I,64,R,60,Normal,,j,1,1517,0,0,0,,2026-05-12T10:11:43.845Z
L,1,I,65,J,0,Normal,,j,1,419,0,0,0,,2026-05-12T10:11:48.413Z
L,1,I,66,7,0,Normal,,j,1,346,0,0,0,,2026-05-12T10:11:52.892Z
L,1,I,67,2,300,Normal,,j,1,420,0,0,0,,2026-05-12T10:11:57.448Z
L,1,I,68,5,240,Backward,,f,1,868,0,0,0,,2026-05-12T10:12:02.467Z
L,1,I,69,J,240,Normal,,j,1,556,0,0,0,,2026-05-12T10:12:07.155Z
L,1,I,70,7,300,Normal,,j,1,468,0,0,0,,2026-05-12T10:12:11.763Z
L,1,I,71,G,0,Backward,,f,1,957,0,0,0,,2026-05-12T10:12:16.856Z
L,1,I,72,7,120,Normal,,j,1,729,0,0,0,,2026-05-12T10:12:21.725Z
L,1,I,73,5,180,Normal,,j,1,1177,0,0,0,,2026-05-12T10:12:27.059Z
L,1,I,74,J,180,Backward,,f,1,1091,0,0,0,,2026-05-12T10:12:32.303Z
L,1,I,75,7,0,Backward,,f,1,508,0,0,0,,2026-05-12T10:12:36.956Z
L,1,I,76,2,240,Backward,,f,1,986,0,0,0,,2026-05-12T10:12:42.085Z
L,1,O,1,7,180,Normal,,j,1,1309,0,0,0,,2026-05-12T10:15:15.379Z
L,1,O,2,2,0,Backward,,f,1,784,0,0,0,,2026-05-12T10:15:18.302Z
L,1,O,3,7,180,Backward,,f,1,1654,0,0,0,,2026-05-12T10:15:22.087Z
L,1,O,4,7,240,Normal,,j,1,645,0,0,0,,2026-05-12T10:15:24.862Z
L,1,O,5,R,0,Backward,,f,1,692,0,0,0,,2026-05-12T10:15:27.695Z
L,1,O,6,5,60,Backward,,f,1,1096,0,0,0,,2026-05-12T10:15:30.932Z
L,1,O,7,R,180,Normal,,f,0,1784,0,0,0,,2026-05-12T10:15:34.851Z
L,1,O,8,2,300,Normal,,j,1,636,0,0,0,,2026-05-12T10:15:37.621Z
L,1,O,9,J,300,Backward,,f,1,975,0,0,0,,2026-05-12T10:15:40.728Z
L,1,O,10,7,120,Backward,,f,1,892,0,0,0,,2026-05-12T10:15:43.757Z
L,1,O,11,2,120,Backward,,f,1,2095,0,0,0,,2026-05-12T10:15:47.995Z
L,1,O,12,J,300,Normal,,j,1,704,0,0,0,,2026-05-12T10:15:50.837Z
L,1,O,13,R,60,Normal,,j,1,809,0,0,0,,2026-05-12T10:15:53.796Z
L,1,O,14,R,0,Normal,,j,1,690,0,0,0,,2026-05-12T10:15:56.624Z
L,1,O,15,G,0,Backward,,f,1,530,0,0,0,,2026-05-12T10:15:59.279Z
L,1,O,16,J,120,Backward,,f,1,1415,0,0,0,,2026-05-12T10:16:02.832Z
L,1,O,17,G,60,Backward,,f,1,1445,0,0,0,,2026-05-12T10:16:06.414Z
L,1,O,18,7,60,Normal,,j,1,1052,0,0,0,,2026-05-12T10:16:09.604Z
L,1,O,19,2,120,Normal,,j,1,602,0,0,0,,2026-05-12T10:16:12.339Z
L,1,O,20,5,180,Backward,,f,1,1699,0,0,0,,2026-05-12T10:16:16.168Z
L,1,O,21,5,180,Normal,,j,1,1217,0,0,0,,2026-05-12T10:16:19.517Z
L,1,O,22,G,240,Normal,,j,1,1134,0,0,0,,2026-05-12T10:16:22.783Z
L,1,O,23,5,300,Normal,,j,1,653,0,0,0,,2026-05-12T10:16:25.570Z
L,1,O,24,G,300,Backward,,f,1,627,0,0,0,,2026-05-12T10:16:28.327Z
L,1,O,25,G,240,Backward,,f,1,1396,0,0,0,,2026-05-12T10:16:31.862Z
L,1,O,26,5,300,Backward,,f,1,1132,0,0,0,,2026-05-12T10:16:35.132Z
L,1,O,27,G,180,Backward,,j,0,2120,0,0,0,,2026-05-12T10:16:39.403Z
L,1,O,28,R,180,Backward,,f,1,1875,0,0,0,,2026-05-12T10:16:43.427Z
L,1,O,29,7,120,Normal,,j,1,780,0,0,0,,2026-05-12T10:16:46.347Z
L,1,O,30,R,240,Backward,,f,1,964,0,0,0,,2026-05-12T10:16:49.448Z
L,1,O,31,G,0,Normal,,j,1,785,0,0,0,,2026-05-12T10:16:52.370Z
L,1,O,32,R,120,Backward,,f,1,1052,0,0,0,,2026-05-12T10:16:55.552Z
L,1,O,33,2,0,Normal,,j,1,529,0,0,0,,2026-05-12T10:16:58.228Z
L,1,O,34,7,240,Backward,,f,1,807,0,0,0,,2026-05-12T10:17:01.157Z
L,1,O,35,5,0,Normal,,j,1,543,0,0,0,,2026-05-12T10:17:03.827Z
L,1,O,36,J,60,Normal,,j,1,1562,0,0,0,,2026-05-12T10:17:07.531Z
L,1,O,37,R,60,Backward,,f,1,783,0,0,0,,2026-05-12T10:17:10.453Z
L,1,O,38,7,60,Backward,,f,1,726,0,0,0,,2026-05-12T10:17:13.313Z
L,1,O,39,2,240,Backward,,f,1,819,0,0,0,,2026-05-12T10:17:16.285Z
L,1,O,40,R,120,Normal,,j,1,794,0,0,0,,2026-05-12T10:17:19.211Z
L,1,O,41,2,300,Backward,,f,1,921,0,0,0,,2026-05-12T10:17:22.271Z
L,1,O,42,R,300,Normal,,j,1,645,0,0,0,,2026-05-12T10:17:25.046Z
L,1,O,43,7,0,Backward,,f,1,549,0,0,0,,2026-05-12T10:17:27.732Z
L,1,O,44,7,0,Normal,,j,1,561,0,0,0,,2026-05-12T10:17:30.446Z
L,1,O,45,G,120,Backward,,f,1,1332,0,0,0,,2026-05-12T10:17:33.916Z
L,1,O,46,G,120,Normal,,j,1,773,0,0,0,,2026-05-12T10:17:36.824Z
L,1,O,47,J,0,Backward,,f,1,1539,0,0,0,,2026-05-12T10:17:40.490Z
L,1,O,48,J,0,Normal,,j,1,438,0,0,0,,2026-05-12T10:17:43.056Z
L,1,O,49,5,120,Normal,,j,1,799,0,0,0,,2026-05-12T10:17:45.983Z
L,1,O,50,J,120,Normal,,j,1,1342,0,0,0,,2026-05-12T10:17:49.459Z
L,1,O,51,7,300,Backward,,f,1,819,0,0,0,,2026-05-12T10:17:52.420Z
L,1,O,52,J,240,Normal,,j,1,1084,0,0,0,,2026-05-12T10:17:55.635Z
L,1,O,53,5,60,Normal,,j,1,660,0,0,0,,2026-05-12T10:17:58.444Z
L,1,O,54,J,60,Backward,,f,1,976,0,0,0,,2026-05-12T10:18:01.561Z
L,1,O,55,2,60,Backward,,f,1,825,0,0,0,,2026-05-12T10:18:04.510Z
L,1,O,56,J,180,Backward,,j,0,2416,0,0,0,,2026-05-12T10:18:09.052Z
L,1,O,57,R,300,Backward,,f,1,1536,0,0,0,,2026-05-12T10:18:12.720Z
L,1,O,58,2,180,Normal,,,0,,1,0,0,,2026-05-12T10:18:18.156Z
L,1,O,59,5,240,Backward,,f,1,1984,0,0,0,,2026-05-12T10:18:22.257Z
L,1,O,60,2,240,Normal,,j,1,798,0,0,0,,2026-05-12T10:18:25.196Z
L,1,O,61,5,0,Backward,,f,1,942,0,0,0,,2026-05-12T10:18:28.290Z
L,1,O,62,2,60,Normal,,j,1,1899,0,0,0,,2026-05-12T10:18:32.314Z
L,1,O,63,J,240,Backward,,f,1,1487,0,0,0,,2026-05-12T10:18:35.936Z
L,1,O,64,7,300,Normal,,j,1,569,0,0,0,,2026-05-12T10:18:38.635Z
L,1,O,65,5,120,Backward,,f,1,938,0,0,0,,2026-05-12T10:18:41.704Z
L,1,O,66,2,180,Backward,,f,1,1176,0,0,0,,2026-05-12T10:18:45.010Z
L,1,O,67,5,240,Normal,,j,1,1316,0,0,0,,2026-05-12T10:18:48.463Z
L,1,O,68,J,180,Normal,,j,1,1055,0,0,0,,2026-05-12T10:18:51.652Z
L,1,O,69,G,180,Normal,,j,1,1780,0,0,0,,2026-05-12T10:18:55.561Z
L,1,O,70,G,300,Normal,,j,1,985,0,0,0,,2026-05-12T10:18:58.683Z
L,1,O,71,G,60,Normal,,j,1,960,0,0,0,,2026-05-12T10:19:01.776Z
L,1,O,72,R,240,Normal,,j,1,1323,0,0,0,,2026-05-12T10:19:05.238Z
L,1,B,1,J,60,Normal,400,j,1,608,0,0,0,,2026-05-12T10:23:54.372Z
L,1,B,2,G,60,Backward,1000,f,1,410,0,0,0,,2026-05-12T10:23:59.951Z
L,1,B,3,2,120,Normal,100,j,1,812,0,0,0,,2026-05-12T10:24:05.031Z
L,1,B,4,R,60,Normal,100,j,1,560,0,0,0,,2026-05-12T10:24:09.846Z
L,1,B,5,7,120,Backward,1000,f,1,786,0,0,0,,2026-05-12T10:24:15.809Z
L,1,B,6,J,0,Normal,400,j,1,433,0,0,0,,2026-05-12T10:24:20.811Z
L,1,B,7,7,60,Normal,1000,j,1,442,0,0,0,,2026-05-12T10:24:26.413Z
L,1,B,8,2,0,Backward,400,f,1,494,0,0,0,,2026-05-12T10:24:31.456Z
L,1,B,9,2,60,Normal,1000,j,1,480,0,0,0,,2026-05-12T10:24:37.102Z
L,1,B,10,R,0,Normal,400,j,1,430,0,0,0,,2026-05-12T10:24:42.078Z
L,1,B,11,2,120,Backward,100,f,1,738,0,0,0,,2026-05-12T10:24:47.072Z
L,1,B,12,5,300,Normal,400,j,1,475,0,0,0,,2026-05-12T10:24:52.105Z
L,1,B,13,J,0,Normal,1000,j,1,431,0,0,0,,2026-05-12T10:24:57.690Z
L,1,B,14,G,0,Normal,100,j,1,491,0,0,0,,2026-05-12T10:25:02.425Z
L,1,B,15,5,60,Backward,100,f,1,595,0,0,0,,2026-05-12T10:25:07.263Z
L,1,B,16,R,240,Normal,100,j,1,795,0,0,0,,2026-05-12T10:25:12.298Z
L,1,B,17,R,180,Backward,400,f,1,873,0,0,0,,2026-05-12T10:25:17.721Z
L,1,B,18,2,120,Backward,400,f,1,683,0,0,0,,2026-05-12T10:25:22.978Z
L,1,B,19,2,0,Normal,100,j,1,476,0,0,0,,2026-05-12T10:25:27.711Z
L,1,B,20,7,0,Normal,100,j,1,453,0,0,0,,2026-05-12T10:25:32.423Z
L,1,B,21,J,240,Backward,1000,f,1,1251,0,0,0,,2026-05-12T10:25:38.825Z
L,1,B,22,J,300,Backward,1000,f,1,604,0,0,0,,2026-05-12T10:25:44.593Z
L,1,B,23,2,180,Backward,1000,f,1,1871,0,0,0,,2026-05-12T10:25:51.611Z
L,1,B,24,J,0,Normal,100,j,1,511,0,0,0,,2026-05-12T10:25:56.383Z
L,1,B,25,G,60,Normal,100,j,1,735,0,0,0,,2026-05-12T10:26:01.370Z
L,1,B,26,2,120,Normal,1000,j,1,540,0,0,0,,2026-05-12T10:26:07.063Z
L,1,B,27,R,120,Backward,400,f,1,626,0,0,0,,2026-05-12T10:26:12.255Z
L,1,B,28,J,120,Normal,400,j,1,1029,0,0,0,,2026-05-12T10:26:17.827Z
L,1,B,29,R,60,Backward,400,f,1,563,0,0,0,,2026-05-12T10:26:22.957Z
L,1,B,30,7,240,Normal,400,j,1,600,0,0,0,,2026-05-12T10:26:28.128Z
L,1,B,31,G,120,Backward,100,f,1,705,0,0,0,,2026-05-12T10:26:33.072Z
L,1,B,32,5,240,Backward,1000,f,1,1265,0,0,0,,2026-05-12T10:26:39.503Z
L,1,B,33,G,180,Backward,100,f,1,2010,0,0,0,,2026-05-12T10:26:45.762Z
L,1,B,34,7,0,Backward,400,f,1,528,0,0,0,,2026-05-12T10:26:50.840Z
L,1,B,35,2,60,Normal,100,j,1,629,0,0,0,,2026-05-12T10:26:55.730Z
L,1,B,36,R,300,Normal,100,j,1,644,0,0,0,,2026-05-12T10:27:00.628Z
L,1,B,37,5,180,Normal,400,j,1,1740,0,0,0,,2026-05-12T10:27:06.919Z
L,1,B,38,5,240,Backward,100,f,1,1661,0,0,0,,2026-05-12T10:27:12.829Z
L,1,B,39,7,0,Normal,400,j,1,392,0,0,0,,2026-05-12T10:27:17.786Z
L,1,B,40,2,180,Normal,400,j,1,709,0,0,0,,2026-05-12T10:27:23.054Z
L,1,B,41,G,300,Normal,100,j,1,589,0,0,0,,2026-05-12T10:27:27.889Z
L,1,B,42,7,180,Normal,100,j,1,987,0,0,0,,2026-05-12T10:27:33.138Z
L,1,B,43,5,0,Backward,400,f,1,658,0,0,0,,2026-05-12T10:27:38.338Z
L,1,B,44,7,180,Backward,400,f,1,1547,0,0,0,,2026-05-12T10:27:44.456Z
L,1,B,45,G,180,Normal,400,j,1,1081,0,0,0,,2026-05-12T10:27:50.078Z
L,1,B,46,G,60,Normal,400,j,1,568,0,0,0,,2026-05-12T10:27:55.197Z
L,1,B,47,5,180,Normal,100,j,1,1153,0,0,0,,2026-05-12T10:28:00.603Z
L,1,B,48,2,0,Backward,1000,f,1,570,0,0,0,,2026-05-12T10:28:06.321Z
L,1,B,49,J,240,Normal,100,j,1,684,0,0,0,,2026-05-12T10:28:11.253Z
L,1,B,50,2,180,Normal,1000,j,1,654,0,0,0,,2026-05-12T10:28:17.058Z
L,1,B,51,R,120,Normal,400,j,1,1073,0,0,0,,2026-05-12T10:28:22.699Z
L,1,B,52,5,0,Normal,100,j,1,440,0,0,0,,2026-05-12T10:28:27.391Z
L,1,B,53,J,0,Backward,100,f,1,631,0,0,0,,2026-05-12T10:28:32.282Z
L,1,B,54,R,0,Normal,1000,j,1,314,0,0,0,,2026-05-12T10:28:37.754Z
L,1,B,55,2,240,Normal,400,j,1,476,0,0,0,,2026-05-12T10:28:42.789Z
L,1,B,56,7,60,Backward,100,f,1,642,0,0,0,,2026-05-12T10:28:47.692Z
L,1,B,57,R,0,Normal,100,j,1,589,0,0,0,,2026-05-12T10:28:52.540Z
L,1,B,58,7,240,Backward,1000,f,1,560,0,0,0,,2026-05-12T10:28:58.261Z
L,1,B,59,5,300,Backward,100,f,1,760,0,0,0,,2026-05-12T10:29:03.293Z
L,1,B,60,7,300,Backward,1000,f,1,477,0,0,0,,2026-05-12T10:29:08.934Z
L,1,B,61,5,180,Backward,100,,0,,1,0,0,,2026-05-12T10:29:16.213Z
L,1,B,62,7,120,Normal,100,j,1,815,0,0,0,,2026-05-12T10:29:21.282Z
L,1,B,63,J,180,Backward,1000,f,1,1454,0,0,0,,2026-05-12T10:29:27.889Z
L,1,B,64,J,60,Normal,1000,j,1,602,0,0,0,,2026-05-12T10:29:33.672Z
L,1,B,65,G,60,Normal,1000,j,1,721,0,0,0,,2026-05-12T10:29:39.556Z
L,1,B,66,7,300,Normal,1000,j,1,438,0,0,0,,2026-05-12T10:29:45.157Z
L,1,B,67,7,300,Normal,100,j,1,460,0,0,0,,2026-05-12T10:29:49.876Z
L,1,B,68,2,60,Backward,100,f,1,638,0,0,0,,2026-05-12T10:29:54.771Z
L,1,B,69,2,180,Backward,400,f,1,1076,0,0,0,,2026-05-12T10:30:00.404Z
L,1,B,70,G,0,Backward,100,f,1,690,0,0,0,,2026-05-12T10:30:05.357Z
L,1,B,71,G,240,Backward,400,f,1,1189,0,0,0,,2026-05-12T10:30:11.085Z
L,1,B,72,5,0,Normal,400,j,1,494,0,0,0,,2026-05-12T10:30:16.154Z
L,1,B,73,2,240,Backward,100,f,1,801,0,0,0,,2026-05-12T10:30:21.217Z
L,1,B,74,R,180,Normal,1000,j,1,703,0,0,0,,2026-05-12T10:30:27.072Z
L,1,B,75,G,240,Normal,100,j,1,786,0,0,0,,2026-05-12T10:30:32.104Z
L,1,B,76,2,240,Backward,1000,j,0,737.8000000119209,1,1,1,,2026-05-12T10:30:34.573Z
L,1,B,77,5,300,Normal,100,j,1,597,0,0,0,,2026-05-12T10:30:40.630Z
L,1,B,78,2,300,Backward,400,f,1,627,0,0,0,,2026-05-12T10:30:45.837Z
L,1,B,79,R,0,Backward,1000,f,1,359,0,0,0,,2026-05-12T10:30:51.348Z
L,1,B,80,R,180,Backward,100,f,1,1742,0,0,0,,2026-05-12T10:30:57.343Z
L,1,B,81,2,300,Backward,1000,f,1,591,0,0,0,,2026-05-12T10:31:03.097Z
L,1,B,82,G,300,Backward,400,f,1,565,0,0,0,,2026-05-12T10:31:08.208Z
L,1,B,83,R,240,Backward,1000,f,1,1030,0,0,0,,2026-05-12T10:31:14.399Z
L,1,B,84,J,60,Backward,100,f,1,961,0,0,0,,2026-05-12T10:31:19.627Z
L,1,B,85,2,300,Normal,1000,j,1,449,0,0,0,,2026-05-12T10:31:25.230Z
L,1,B,86,J,120,Backward,400,f,1,962,0,0,0,,2026-05-12T10:31:30.772Z
L,1,B,87,G,0,Backward,1000,f,1,494,0,0,0,,2026-05-12T10:31:36.414Z
L,1,B,88,R,240,Normal,400,j,1,749,0,0,0,,2026-05-12T10:31:41.725Z
L,1,B,89,R,0,Backward,400,f,1,574,0,0,0,,2026-05-12T10:31:46.851Z
L,1,B,90,5,240,Normal,400,j,1,613,0,0,0,,2026-05-12T10:31:52.024Z
L,1,B,91,7,180,Normal,1000,j,1,775,0,0,0,,2026-05-12T10:31:57.978Z
L,1,B,92,5,240,Normal,100,j,1,698,0,0,0,,2026-05-12T10:32:02.913Z
L,1,B,93,R,0,Backward,100,f,1,670,0,0,0,,2026-05-12T10:32:07.834Z
L,1,B,94,G,120,Normal,400,j,1,1031,0,0,0,,2026-05-12T10:32:13.424Z
L,1,B,95,7,120,Backward,400,f,1,952,0,0,0,,2026-05-12T10:32:18.930Z
L,1,B,96,G,0,Backward,400,f,1,697,0,0,0,,2026-05-12T10:32:24.170Z
L,1,B,97,7,180,Backward,100,f,1,1088,0,0,0,,2026-05-12T10:32:29.504Z
L,1,B,98,5,120,Backward,1000,f,1,1061,0,0,0,,2026-05-12T10:32:35.734Z
L,1,B,99,G,300,Normal,400,j,1,1009,0,0,0,,2026-05-12T10:32:41.285Z
L,1,B,100,J,180,Normal,1000,j,1,1466,0,0,0,,2026-05-12T10:32:47.898Z
L,1,B,101,5,300,Backward,1000,f,1,907,0,0,0,,2026-05-12T10:32:53.950Z
L,1,B,102,7,300,Backward,400,f,1,516,0,0,0,,2026-05-12T10:32:59.040Z
L,1,B,103,G,120,Backward,400,f,1,1116,0,0,0,,2026-05-12T10:33:04.724Z
L,1,B,104,R,60,Backward,100,f,1,682,0,0,0,,2026-05-12T10:33:09.664Z
L,1,B,105,J,60,Normal,100,j,1,591,0,0,0,,2026-05-12T10:33:14.506Z
L,1,B,106,J,60,Backward,400,f,1,785,0,0,0,,2026-05-12T10:33:19.846Z
L,1,B,107,5,60,Normal,100,j,1,708,0,0,0,,2026-05-12T10:33:24.808Z
L,1,B,108,G,240,Normal,400,j,1,846,0,0,0,,2026-05-12T10:33:30.223Z
L,1,B,109,J,120,Normal,1000,j,1,681,0,0,0,,2026-05-12T10:33:36.066Z
L,1,B,110,J,300,Normal,400,j,1,650,0,0,0,,2026-05-12T10:33:41.276Z
L,1,B,111,R,300,Normal,400,j,1,461,0,0,0,,2026-05-12T10:33:46.287Z
L,1,B,112,J,300,Backward,100,f,1,768,0,0,0,,2026-05-12T10:33:51.317Z
L,1,B,113,5,120,Backward,100,f,1,1353,0,0,0,,2026-05-12T10:33:56.918Z
L,1,B,114,J,180,Normal,100,j,1,1209,0,0,0,,2026-05-12T10:34:02.375Z
L,1,B,115,7,60,Backward,400,f,1,781,0,0,0,,2026-05-12T10:34:07.725Z
L,1,B,116,G,180,Backward,1000,f,1,1713,0,0,0,,2026-05-12T10:34:14.598Z
L,1,B,117,R,120,Normal,100,j,1,923,0,0,0,,2026-05-12T10:34:19.773Z
L,1,B,118,2,300,Normal,400,j,1,329,0,0,0,,2026-05-12T10:34:24.656Z
L,1,B,119,7,240,Normal,100,j,1,688,0,0,0,,2026-05-12T10:34:29.588Z
L,1,B,120,5,60,Normal,400,j,1,426,0,0,0,,2026-05-12T10:34:34.583Z
L,1,B,121,2,60,Backward,1000,f,1,735,0,0,0,,2026-05-12T10:34:40.471Z
L,1,B,122,2,120,Normal,400,j,1,510,0,0,0,,2026-05-12T10:34:45.536Z
L,1,B,123,2,0,Normal,400,j,1,325,0,0,0,,2026-05-12T10:34:50.419Z
L,1,B,124,R,300,Normal,1000,j,1,514,0,0,0,,2026-05-12T10:34:56.100Z
L,1,B,125,R,120,Normal,1000,j,1,510,0,0,0,,2026-05-12T10:35:01.764Z
L,1,B,126,R,60,Normal,400,j,1,367,0,0,0,,2026-05-12T10:35:06.676Z
L,1,B,127,G,240,Backward,100,f,1,1141,0,0,0,,2026-05-12T10:35:12.057Z
L,1,B,128,R,300,Backward,400,f,1,527,0,0,0,,2026-05-12T10:35:17.151Z
L,1,B,129,7,120,Normal,1000,j,1,648,0,0,0,,2026-05-12T10:35:22.953Z
L,1,B,130,J,180,Backward,100,f,1,1208,0,0,0,,2026-05-12T10:35:28.406Z
L,1,B,131,G,0,Normal,1000,j,1,478,0,0,0,,2026-05-12T10:35:34.046Z
L,1,B,132,J,120,Backward,100,f,1,1250,0,0,0,,2026-05-12T10:35:39.551Z
L,1,B,133,7,120,Backward,100,f,1,780,0,0,0,,2026-05-12T10:35:44.578Z
L,1,B,134,7,180,Backward,1000,f,1,1089,0,0,0,,2026-05-12T10:35:50.810Z
L,1,B,135,5,120,Normal,100,j,1,725,0,0,0,,2026-05-12T10:35:55.791Z
L,1,B,136,7,180,Normal,400,j,1,1576,0,0,0,,2026-05-12T10:36:01.936Z
L,1,B,137,R,180,Normal,100,j,1,944,0,0,0,,2026-05-12T10:36:07.143Z
L,1,B,138,2,240,Backward,400,f,1,681,0,0,0,,2026-05-12T10:36:12.388Z
L,1,B,139,R,180,Normal,400,j,1,759,0,0,0,,2026-05-12T10:36:17.702Z
L,1,B,140,R,240,Normal,1000,j,1,458,0,0,0,,2026-05-12T10:36:23.313Z
L,1,B,141,R,240,Backward,400,f,1,602,0,0,0,,2026-05-12T10:36:28.462Z
L,1,B,142,7,60,Normal,400,f,0,453,0,0,0,,2026-05-12T10:36:33.459Z
L,1,B,143,G,180,Backward,400,f,1,1677,0,0,0,,2026-05-12T10:36:39.687Z
L,1,B,144,5,60,Backward,1000,f,1,961,0,0,0,,2026-05-12T10:36:45.794Z
L,1,B,145,J,300,Normal,100,j,1,624,0,0,0,,2026-05-12T10:36:50.655Z
L,1,B,146,G,240,Backward,1000,f,1,650,0,0,0,,2026-05-12T10:36:56.470Z
L,1,B,147,J,180,Normal,400,j,1,755,0,0,0,,2026-05-12T10:37:01.781Z
L,1,B,148,5,240,Backward,400,f,1,864,0,0,0,,2026-05-12T10:37:07.190Z
L,1,B,149,7,120,Normal,400,j,1,438,0,0,0,,2026-05-12T10:37:12.213Z
L,1,B,150,J,300,Normal,1000,j,1,524,0,0,0,,2026-05-12T10:37:17.895Z
L,1,B,151,5,180,Backward,400,j,0,1922,0,0,0,,2026-05-12T10:37:24.383Z
L,1,B,152,5,180,Backward,1000,,0,,1,0,0,,2026-05-12T10:37:32.537Z
L,1,B,153,5,120,Normal,400,j,1,667,0,0,0,,2026-05-12T10:37:37.775Z
L,1,B,154,7,60,Backward,1000,f,1,540,0,0,0,,2026-05-12T10:37:43.458Z
L,1,B,155,J,0,Backward,1000,f,1,499,0,0,0,,2026-05-12T10:37:49.133Z
L,1,B,156,5,60,Backward,400,f,1,658,0,0,0,,2026-05-12T10:37:54.335Z
L,1,B,157,5,120,Normal,1000,j,1,729,0,0,0,,2026-05-12T10:38:00.231Z
L,1,B,158,J,240,Normal,400,j,1,637,0,0,0,,2026-05-12T10:38:05.432Z
L,1,B,159,R,300,Backward,100,f,1,813,0,0,0,,2026-05-12T10:38:10.495Z
L,1,B,160,R,240,Backward,100,f,1,821,0,0,0,,2026-05-12T10:38:15.568Z
L,1,B,161,G,300,Backward,100,f,1,631,0,0,0,,2026-05-12T10:38:20.445Z
L,1,B,162,R,180,Backward,1000,f,1,1315,0,0,0,,2026-05-12T10:38:26.921Z
L,1,B,163,G,300,Normal,1000,j,1,692,0,0,0,,2026-05-12T10:38:32.773Z
L,1,B,164,G,240,Normal,1000,j,1,894,0,0,0,,2026-05-12T10:38:38.827Z
L,1,B,165,R,300,Backward,1000,f,1,766,0,0,0,,2026-05-12T10:38:44.731Z
L,1,B,166,2,0,Backward,100,f,1,626,0,0,0,,2026-05-12T10:38:49.607Z
L,1,B,167,5,0,Backward,1000,f,1,622,0,0,0,,2026-05-12T10:38:55.386Z
L,1,B,168,G,120,Backward,1000,f,1,1075,0,0,0,,2026-05-12T10:39:01.610Z
L,1,B,169,7,300,Normal,400,j,1,559,0,0,0,,2026-05-12T10:39:06.734Z
L,1,B,170,J,120,Normal,100,j,1,894,0,0,0,,2026-05-12T10:39:11.876Z
L,1,B,171,2,240,Normal,1000,j,1,569,0,0,0,,2026-05-12T10:39:17.588Z
L,1,B,172,J,240,Backward,100,f,1,732,0,0,0,,2026-05-12T10:39:22.578Z
L,1,B,173,5,240,Normal,1000,j,1,483,0,0,0,,2026-05-12T10:39:28.217Z
L,1,B,174,J,60,Backward,1000,f,1,1066,0,0,0,,2026-05-12T10:39:34.432Z
L,1,B,175,J,300,Backward,400,f,1,520,0,0,0,,2026-05-12T10:39:39.508Z
L,1,B,176,5,180,Normal,1000,j,1,669,0,0,0,,2026-05-12T10:39:45.344Z
L,1,B,177,7,240,Normal,1000,j,1,479,0,0,0,,2026-05-12T10:39:50.979Z
L,1,B,178,7,240,Backward,400,f,1,544,0,0,0,,2026-05-12T10:39:56.084Z
L,1,B,179,G,120,Normal,1000,j,1,774,0,0,0,,2026-05-12T10:40:02.028Z
L,1,B,180,J,240,Backward,400,f,1,733,0,0,0,,2026-05-12T10:40:07.308Z
L,1,B,181,2,60,Normal,400,j,1,438,0,0,0,,2026-05-12T10:40:12.298Z
L,1,B,182,G,0,Normal,400,j,1,483,0,0,0,,2026-05-12T10:40:17.355Z
L,1,B,183,5,300,Normal,1000,j,1,383,0,0,0,,2026-05-12T10:40:22.886Z
L,1,B,184,5,0,Backward,100,f,1,635,0,0,0,,2026-05-12T10:40:27.783Z
L,1,B,185,J,180,Backward,400,f,1,1039,0,0,0,,2026-05-12T10:40:33.364Z
L,1,B,186,5,0,Normal,1000,j,1,399,0,0,0,,2026-05-12T10:40:38.913Z
L,1,B,187,2,240,Normal,100,j,1,622,0,0,0,,2026-05-12T10:40:43.801Z
L,1,B,188,J,120,Backward,1000,f,1,608,0,0,0,,2026-05-12T10:40:49.576Z
L,1,B,189,R,120,Backward,1000,f,1,523,0,0,0,,2026-05-12T10:40:55.258Z
L,1,B,190,2,300,Backward,100,f,1,681,0,0,0,,2026-05-12T10:41:00.195Z
L,1,B,191,7,0,Backward,1000,f,1,500,0,0,0,,2026-05-12T10:41:05.867Z
L,1,B,192,7,240,Backward,100,f,1,702,0,0,0,,2026-05-12T10:41:10.816Z
L,1,B,193,G,120,Normal,100,f,0,747,0,0,0,,2026-05-12T10:41:15.794Z
L,1,B,194,5,120,Backward,400,f,1,680,0,0,0,,2026-05-12T10:41:21.034Z
L,1,B,195,5,300,Backward,400,f,1,1136,0,0,0,,2026-05-12T10:41:26.723Z
L,1,B,196,7,300,Backward,100,f,1,760,0,0,0,,2026-05-12T10:41:31.741Z
L,1,B,197,2,180,Backward,100,f,1,1166,0,0,0,,2026-05-12T10:41:37.163Z
L,1,B,198,7,60,Normal,100,j,1,531,0,0,0,,2026-05-12T10:41:41.945Z
L,1,B,199,2,120,Backward,1000,f,1,617,0,0,0,,2026-05-12T10:41:47.715Z
L,1,B,200,R,60,Backward,1000,f,1,732,0,0,0,,2026-05-12T10:41:53.602Z
L,1,B,201,5,60,Normal,1000,j,1,537,0,0,0,,2026-05-12T10:41:59.283Z
L,1,B,202,G,300,Backward,1000,j,0,859.8000000119209,1,1,1,,2026-05-12T10:42:01.874Z
L,1,B,203,R,60,Normal,1000,j,1,499,0,0,0,,2026-05-12T10:42:08.677Z
L,1,B,204,2,60,Backward,400,f,1,528,0,0,0,,2026-05-12T10:42:13.751Z
L,1,B,205,J,0,Backward,400,f,1,719,0,0,0,,2026-05-12T10:42:19.011Z
L,1,B,206,G,60,Backward,100,f,1,728,0,0,0,,2026-05-12T10:42:23.991Z
L,1,B,207,G,180,Normal,100,j,1,936,0,0,0,,2026-05-12T10:42:29.185Z
L,1,B,208,G,60,Backward,400,f,1,550,0,0,0,,2026-05-12T10:42:34.289Z
L,1,B,209,2,300,Normal,100,j,1,564,0,0,0,,2026-05-12T10:42:39.093Z
L,1,B,210,2,180,Normal,100,j,1,1092,0,0,0,,2026-05-12T10:42:44.439Z
L,1,B,211,2,0,Normal,1000,j,1,538,0,0,0,,2026-05-12T10:42:50.117Z
L,1,B,212,R,120,Backward,100,f,1,715,0,0,0,,2026-05-12T10:42:55.094Z
L,1,B,213,G,180,Normal,1000,j,1,765,0,0,0,,2026-05-12T10:43:01.013Z
L,1,B,214,J,240,Normal,1000,j,1,627,0,0,0,,2026-05-12T10:43:06.790Z
L,1,B,215,7,0,Normal,1000,j,1,459,0,0,0,,2026-05-12T10:43:12.402Z
L,1,B,216,7,0,Backward,100,f,1,527,0,0,0,,2026-05-12T10:43:17.172Z
L,1,B,217,2,240,Backward,1000,f,1,630,0,0,0,,2026-05-12T10:43:22.943Z
L,1,B,218,G,300,Backward,1000,f,1,498,0,0,0,,2026-05-12T10:43:28.578Z
L,1,C,1,5,0,Normal,,j,1,1273,0,0,0,,2026-05-12T10:43:41.895Z
L,1,C,2,5,180,Backward,,f,1,1301,0,0,0,,2026-05-12T10:43:47.342Z
L,1,C,3,J,120,Normal,,j,1,275,0,0,0,,2026-05-12T10:43:51.749Z
L,1,C,4,2,60,Normal,,j,1,230,0,0,0,,2026-05-12T10:43:56.119Z
L,1,C,5,J,60,Backward,,f,1,221,0,0,0,,2026-05-12T10:44:00.492Z
L,1,C,6,R,0,Backward,,f,1,87,1,0,0,,2026-05-12T10:44:04.725Z
L,1,C,7,7,180,Normal,,j,1,212,0,0,0,,2026-05-12T10:44:09.101Z
L,1,C,8,7,60,Backward,,f,1,482,0,0,0,,2026-05-12T10:44:13.739Z
L,1,C,9,5,60,Normal,,j,1,325,0,0,0,,2026-05-12T10:44:18.215Z
L,1,C,10,5,120,Normal,,j,1,312,0,0,0,,2026-05-12T10:44:22.683Z
L,1,C,11,2,120,Backward,,f,1,108,1,0,0,,2026-05-12T10:44:26.948Z
L,1,C,12,G,300,Backward,,f,1,110,1,0,0,,2026-05-12T10:44:31.217Z
L,1,C,13,5,0,Backward,,f,1,22,1,0,0,,2026-05-12T10:44:35.395Z
L,1,C,14,5,240,Normal,,j,1,204,0,0,0,,2026-05-12T10:44:39.758Z
L,1,C,15,2,300,Normal,,j,1,203,0,0,0,,2026-05-12T10:44:44.111Z
L,1,C,16,R,120,Backward,,f,1,198,0,0,0,,2026-05-12T10:44:48.453Z
L,1,C,17,R,120,Normal,,j,1,279,0,0,0,,2026-05-12T10:44:52.868Z
L,1,C,18,G,60,Backward,,f,1,248,0,0,0,,2026-05-12T10:44:57.271Z
L,1,C,19,2,240,Backward,,f,1,179,0,0,0,,2026-05-12T10:45:01.602Z
L,1,C,20,J,0,Backward,,f,1,130,1,0,0,,2026-05-12T10:45:05.887Z
L,1,C,21,7,0,Normal,,j,0,330.7000000476837,1,1,1,,2026-05-12T10:45:09.954Z
L,1,C,22,7,240,Normal,,j,1,243,0,0,0,,2026-05-12T10:45:14.433Z
L,1,C,23,R,60,Backward,,f,1,284,0,0,0,,2026-05-12T10:45:18.857Z
L,1,C,24,7,60,Normal,,j,0,802.3999999761581,1,1,1,,2026-05-12T10:45:21.382Z
L,1,C,25,5,120,Backward,,f,1,742,0,0,0,,2026-05-12T10:45:27.496Z
L,1,C,26,2,0,Backward,,f,0,843.5,1,1,1,,2026-05-12T10:45:30.074Z
L,1,C,27,G,180,Normal,,j,1,321,0,0,0,,2026-05-12T10:45:35.711Z
L,1,C,28,R,180,Backward,,f,1,284,0,0,0,,2026-05-12T10:45:40.139Z
L,1,C,29,G,300,Normal,,j,1,246,0,0,0,,2026-05-12T10:45:44.531Z
L,1,C,30,2,240,Normal,,j,1,320,0,0,0,,2026-05-12T10:45:48.991Z
L,1,C,31,G,240,Normal,,j,1,156,0,0,0,,2026-05-12T10:45:53.296Z
L,1,C,32,7,0,Backward,,f,1,569,0,0,0,,2026-05-12T10:45:58.009Z
L,1,C,33,R,60,Normal,,j,1,256,0,0,0,,2026-05-12T10:46:02.430Z
L,1,C,34,J,240,Normal,,j,1,218,0,0,0,,2026-05-12T10:46:06.790Z
L,1,C,35,G,60,Normal,,j,1,275,0,0,0,,2026-05-12T10:46:11.214Z
L,1,C,36,J,120,Backward,,f,0,414.19999998807907,1,1,1,,2026-05-12T10:46:15.374Z
L,1,C,37,7,180,Backward,,f,1,871,0,0,0,,2026-05-12T10:46:20.392Z
L,1,C,38,G,120,Normal,,j,1,401,0,0,0,,2026-05-12T10:46:24.923Z
L,1,C,39,7,120,Backward,,f,1,215,0,0,0,,2026-05-12T10:46:29.268Z
L,1,C,40,G,180,Backward,,f,1,216,0,0,0,,2026-05-12T10:46:33.654Z
L,1,C,41,J,300,Backward,,f,1,212,0,0,0,,2026-05-12T10:46:38.016Z
L,1,C,42,2,60,Backward,,f,1,210,0,0,0,,2026-05-12T10:46:42.366Z
L,1,C,43,7,120,Normal,,j,0,289.80000001192093,1,1,1,,2026-05-12T10:46:46.398Z
L,1,C,44,R,300,Backward,,f,1,250,0,0,0,,2026-05-12T10:46:50.907Z
L,1,C,45,5,240,Backward,,f,1,232,0,0,0,,2026-05-12T10:46:55.306Z
L,1,C,46,J,0,Normal,,j,1,207,0,0,0,,2026-05-12T10:46:59.665Z
L,1,C,47,2,180,Normal,,j,1,246,0,0,0,,2026-05-12T10:47:04.036Z
L,1,C,48,2,0,Normal,,j,1,176,0,0,0,,2026-05-12T10:47:08.366Z
L,1,C,49,2,300,Backward,,f,1,55,1,0,0,,2026-05-12T10:47:12.578Z
L,1,C,50,7,300,Normal,,j,0,1442,1,1,1,,2026-05-12T10:47:15.745Z
L,1,C,51,7,240,Backward,,f,1,217,0,0,0,,2026-05-12T10:47:20.690Z
L,1,C,52,J,240,Backward,,f,1,792,0,0,0,,2026-05-12T10:47:25.629Z
L,1,C,53,R,300,Normal,,j,1,216,0,0,0,,2026-05-12T10:47:29.987Z
L,1,C,54,R,180,Normal,,j,1,247,0,0,0,,2026-05-12T10:47:34.385Z
L,1,C,55,2,180,Backward,,f,1,210,0,0,0,,2026-05-12T10:47:38.749Z
L,1,C,56,J,180,Backward,,f,1,209,0,0,0,,2026-05-12T10:47:43.115Z
L,1,C,57,J,60,Normal,,j,1,230,0,0,0,,2026-05-12T10:47:47.486Z
L,1,C,58,J,180,Normal,,j,1,238,0,0,0,,2026-05-12T10:47:51.877Z
L,1,C,59,5,300,Backward,,f,1,212,0,0,0,,2026-05-12T10:47:56.218Z
L,1,C,60,2,120,Normal,,j,1,180,0,0,0,,2026-05-12T10:48:00.551Z
L,1,C,61,R,240,Normal,,j,1,208,0,0,0,,2026-05-12T10:48:04.916Z
L,1,C,62,G,240,Backward,,f,1,270,0,0,0,,2026-05-12T10:48:09.342Z
L,1,C,63,5,300,Normal,,j,1,216,0,0,0,,2026-05-12T10:48:13.702Z
L,1,C,64,R,240,Backward,,f,1,192,0,0,0,,2026-05-12T10:48:18.029Z
L,1,C,65,7,300,Backward,,f,1,1055,0,0,0,,2026-05-12T10:48:23.226Z
L,1,C,66,G,0,Normal,,j,1,204,0,0,0,,2026-05-12T10:48:27.594Z
L,1,C,67,G,0,Backward,,f,1,190,0,0,0,,2026-05-12T10:48:31.942Z
L,1,C,68,G,120,Backward,,f,1,166,0,0,0,,2026-05-12T10:48:36.254Z
L,1,C,69,J,300,Normal,,j,1,199,0,0,0,,2026-05-12T10:48:40.602Z
L,1,C,70,5,180,Normal,,j,1,226,0,0,0,,2026-05-12T10:48:44.996Z
L,1,C,71,R,0,Normal,,j,1,146,1,0,0,,2026-05-12T10:48:49.286Z
L,1,C,72,5,60,Backward,,f,1,127,1,0,0,,2026-05-12T10:48:53.582Z
L,1,C,73,7,0,Normal,,j,0,1262.8999999761581,1,1,1,,2026-05-12T10:48:56.576Z
L,1,C,74,7,60,Normal,,j,0,660.6999999880791,1,1,1,,2026-05-12T10:48:59.706Z
L,1,C,75,2,0,Backward,,f,1,276,0,0,0,,2026-05-12T10:49:05.332Z
L,1,C,76,J,120,Backward,,f,1,225,0,0,0,,2026-05-12T10:49:09.712Z
L,1,C,77,7,120,Normal,,j,1,353,0,0,0,,2026-05-12T10:49:14.205Z
L,1,C,78,7,300,Normal,,j,1,387,0,0,0,,2026-05-12T10:49:18.741Z
L,1,C,79,7,0,Normal,,j,1,232,0,0,0,,2026-05-12T10:49:23.117Z
L,1,C,80,7,60,Normal,,j,1,200,0,0,0,,2026-05-12T10:49:27.455Z
